Time [min]	Voltage [mV]
0.00000	0.0284
0.00333	0.0281
0.00667	0.0254
0.01000	0.0093
0.01333	0.0031
0.01667	-0.0005
0.02000	-0.0004
0.02333	-0.0012
0.02667	-0.0005
0.03000	-0.0008
0.03333	-0.0003
0.03667	-0.0002
0.04000	-0.0005
0.04333	0.0006
0.04667	0.0023
0.05000	0.0036
0.05333	0.0016
0.05667	0.0032
0.06000	0.0044
0.06333	0.0047
0.06667	0.0040
0.07000	0.0023
0.07333	0.0033
0.07667	0.0029
0.08000	0.0013
0.08333	0.0024
0.08667	0.0024
0.09000	0.0005
0.09333	0.0015
0.09667	0.0018
0.10000	0.0017
0.10333	0.0010
0.10667	0.0030
0.11000	0.0045
0.11333	0.0058
0.11667	0.0040
0.12000	0.0039
0.12333	0.0034
0.12667	0.0036
0.13000	0.0025
0.13333	0.0024
0.13667	0.0033
0.14000	0.0030
0.14333	0.0022
0.14667	0.0014
0.15000	0.0012
0.15333	0.0021
0.15667	0.0041
0.16000	0.0055
0.16333	0.0061
0.16667	0.0041
0.17000	0.0040
0.17333	0.0039
0.17667	0.0035
0.18000	0.0046
0.18333	0.0054
0.18667	0.0056
0.19000	0.0076
0.19333	0.0073
0.19667	0.0077
0.20000	0.0068
0.20333	0.0042
0.20667	0.0033
0.21000	0.0024
0.21333	0.0020
0.21667	0.0015
0.22000	0.0018
0.22333	0.0023
0.22667	0.0042
0.23000	0.0052
0.23333	0.0044
0.23667	0.0040
0.24000	0.0030
0.24333	0.0010
0.24667	0.0007
0.25000	0.0019
0.25333	0.0009
0.25667	0.0018
0.26000	0.0026
0.26333	0.0030
0.26667	0.0037
0.27000	0.0039
0.27333	0.0040
0.27667	0.0040
0.28000	0.0041
0.28333	0.0045
0.28667	0.0036
0.29000	0.0040
0.29333	0.0043
0.29667	0.0029
0.30000	0.0030
0.30333	0.0030
0.30667	0.0029
0.31000	0.0023
0.31333	0.0021
0.31667	0.0019
0.32000	0.0016
0.32333	0.0027
0.32667	0.0033
0.33000	0.0024
0.33333	0.0018
0.33667	0.0006
0.34000	0.0002
0.34333	-0.0001
0.34667	-0.0004
0.35000	0.0009
0.35333	0.0024
0.35667	0.0025
0.36000	0.0022
0.36333	0.0045
0.36667	0.0040
0.37000	0.0039
0.37333	0.0054
0.37667	0.0037
0.38000	0.0034
0.38333	0.0037
0.38667	0.0030
0.39000	0.0023
0.39333	0.0023
0.39667	0.0029
0.40000	0.0037
0.40333	0.0036
0.40667	0.0026
0.41000	0.0029
0.41333	0.0030
0.41667	0.0030
0.42000	0.0027
0.42333	0.0018
0.42667	0.0027
0.43000	0.0034
0.43333	0.0045
0.43667	0.0024
0.44000	0.0007
0.44333	0.0006
0.44667	0.0016
0.45000	0.0021
0.45333	0.0029
0.45667	0.0033
0.46000	0.0022
0.46333	0.0015
0.46667	0.0015
0.47000	0.0004
0.47333	-0.0001
0.47667	-0.0005
0.48000	-0.0002
0.48333	0.0001
0.48667	0.0011
0.49000	0.0021
0.49333	0.0013
0.49667	0.0011
0.50000	0.0012
0.50333	0.0012
0.50667	-0.0006
0.51000	-0.0022
0.51333	-0.0030
0.51667	-0.0003
0.52000	-0.0007
0.52333	-0.0016
0.52667	0.0003
0.53000	0.0014
0.53333	0.0025
0.53667	0.0009
0.54000	0.0010
0.54333	0.0018
0.54667	0.0035
0.55000	0.0022
0.55333	0.0015
0.55667	0.0014
0.56000	0.0008
0.56333	0.0010
0.56667	0.0004
0.57000	0.0017
0.57333	0.0002
0.57667	-0.0002
0.58000	0.0007
0.58333	0.0009
0.58667	0.0008
0.59000	0.0002
0.59333	0.0003
0.59667	0.0006
0.60000	0.0002
0.60333	0.0012
0.60667	0.0029
0.61000	0.0007
0.61333	-0.0003
0.61667	-0.0018
0.62000	-0.0020
0.62333	-0.0005
0.62667	0.0006
0.63000	0.0017
0.63333	0.0007
0.63667	0.0009
0.64000	0.0005
0.64333	-0.0004
0.64667	0.0006
0.65000	0.0022
0.65333	0.0015
0.65667	0.0004
0.66000	0.0001
0.66333	0.0005
0.66667	0.0021
0.67000	0.0030
0.67333	0.0030
0.67667	0.0040
0.68000	0.0030
0.68333	0.0033
0.68667	0.0059
0.69000	0.0054
0.69333	0.0013
0.69667	0.0003
0.70000	0.0003
0.70333	0.0014
0.70667	0.0023
0.71000	0.0018
0.71333	0.0009
0.71667	0.0010
0.72000	0.0020
0.72333	0.0020
0.72667	0.0030
0.73000	0.0006
0.73333	-0.0010
0.73667	0.0010
0.74000	-0.0005
0.74333	-0.0009
0.74667	-0.0004
0.75000	0.0004
0.75333	0.0009
0.75667	0.0022
0.76000	0.0015
0.76333	0.0015
0.76667	0.0026
0.77000	0.0014
0.77333	0.0022
0.77667	0.0038
0.78000	0.0029
0.78333	0.0025
0.78667	0.0029
0.79000	0.0030
0.79333	0.0033
0.79667	0.0041
0.80000	0.0057
0.80333	0.0063
0.80667	0.0048
0.81000	0.0041
0.81333	0.0019
0.81667	0.0010
0.82000	0.0012
0.82333	0.0015
0.82667	0.0034
0.83000	0.0026
0.83333	0.0015
0.83667	0.0027
0.84000	0.0026
0.84333	0.0018
0.84667	0.0012
0.85000	0.0010
0.85333	0.0010
0.85667	0.0010
0.86000	0.0017
0.86333	0.0030
0.86667	0.0035
0.87000	0.0031
0.87333	0.0024
0.87667	0.0016
0.88000	0.0013
0.88333	0.0006
0.88667	0.0016
0.89000	0.0020
0.89333	0.0026
0.89667	0.0045
0.90000	0.0046
0.90333	0.0045
0.90667	0.0045
0.91000	0.0038
0.91333	0.0038
0.91667	0.0041
0.92000	0.0029
0.92333	0.0036
0.92667	0.0041
0.93000	0.0024
0.93333	0.0024
0.93667	0.0039
0.94000	0.0049
0.94333	0.0038
0.94667	0.0032
0.95000	0.0023
0.95333	0.0013
0.95667	0.0018
0.96000	0.0031
0.96333	0.0042
0.96667	0.0041
0.97000	0.0021
0.97333	0.0004
0.97667	0.0008
0.98000	0.0010
0.98333	0.0006
0.98667	0.0013
0.99000	0.0034
0.99333	0.0047
0.99667	0.0041
1.00000	0.0029
1.00333	0.0010
1.00667	0.0002
1.01000	0.0004
1.01333	0.0009
1.01667	0.0025
1.02000	0.0045
1.02333	0.0045
1.02667	0.0029
1.03000	0.0010
1.03333	0.0006
1.03667	0.0013
1.04000	0.0011
1.04333	0.0002
1.04667	-0.0004
1.05000	0.0003
1.05333	0.0021
1.05667	0.0028
1.06000	0.0034
1.06333	0.0031
1.06667	0.0034
1.07000	0.0035
1.07333	0.0027
1.07667	0.0021
1.08000	0.0016
1.08333	0.0032
1.08667	0.0026
1.09000	0.0004
1.09333	0.0005
1.09667	0.0018
1.10000	0.0032
1.10333	0.0034
1.10667	0.0031
1.11000	0.0034
1.11333	0.0026
1.11667	0.0013
1.12000	0.0015
1.12333	0.0015
1.12667	0.0033
1.13000	0.0047
1.13333	0.0037
1.13667	0.0040
1.14000	0.0048
1.14333	0.0041
1.14667	0.0027
1.15000	0.0039
1.15333	0.0057
1.15667	0.0055
1.16000	0.0051
1.16333	0.0041
1.16667	0.0045
1.17000	0.0044
1.17333	0.0018
1.17667	0.0012
1.18000	0.0023
1.18333	0.0015
1.18667	0.0021
1.19000	0.0018
1.19333	0.0008
1.19667	0.0014
1.20000	0.0014
1.20333	0.0020
1.20667	0.0038
1.21000	0.0048
1.21333	0.0035
1.21667	0.0018
1.22000	0.0016
1.22333	0.0029
1.22667	0.0038
1.23000	0.0030
1.23333	0.0031
1.23667	0.0034
1.24000	0.0021
1.24333	0.0007
1.24667	-0.0004
1.25000	-0.0004
1.25333	-0.0001
1.25667	-0.0000
1.26000	0.0005
1.26333	0.0014
1.26667	0.0029
1.27000	0.0038
1.27333	0.0019
1.27667	0.0013
1.28000	0.0019
1.28333	0.0020
1.28667	0.0015
1.29000	0.0005
1.29333	0.0011
1.29667	0.0019
1.30000	0.0046
1.30333	0.0056
1.30667	0.0025
1.31000	0.0030
1.31333	0.0052
1.31667	0.0054
1.32000	0.0066
1.32333	0.0062
1.32667	0.0052
1.33000	0.0050
1.33333	0.0050
1.33667	0.0023
1.34000	0.0003
1.34333	0.0006
1.34667	0.0009
1.35000	0.0021
1.35333	0.0040
1.35667	0.0032
1.36000	0.0010
1.36333	0.0007
1.36667	0.0021
1.37000	0.0029
1.37333	0.0024
1.37667	0.0037
1.38000	0.0032
1.38333	0.0010
1.38667	0.0013
1.39000	0.0008
1.39333	0.0007
1.39667	0.0033
1.40000	0.0048
1.40333	0.0044
1.40667	0.0052
1.41000	0.0042
1.41333	0.0026
1.41667	0.0009
1.42000	0.0007
1.42333	0.0010
1.42667	0.0028
1.43000	0.0056
1.43333	0.0063
1.43667	0.0054
1.44000	0.0045
1.44333	0.0041
1.44667	0.0028
1.45000	0.0033
1.45333	0.0045
1.45667	0.0037
1.46000	0.0043
1.46333	0.0055
1.46667	0.0047
1.47000	0.0035
1.47333	0.0018
1.47667	0.0017
1.48000	0.0038
1.48333	0.0049
1.48667	0.0031
1.49000	0.0009
1.49333	0.0001
1.49667	0.0013
1.50000	0.0044
1.50333	0.0046
1.50667	0.0053
1.51000	0.0040
1.51333	0.0018
1.51667	0.0030
1.52000	0.0033
1.52333	0.0024
1.52667	0.0020
1.53000	0.0001
1.53333	-0.0002
1.53667	0.0013
1.54000	0.0026
1.54333	0.0023
1.54667	0.0007
1.55000	0.0020
1.55333	0.0049
1.55667	0.0052
1.56000	0.0057
1.56333	0.0040
1.56667	0.0018
1.57000	0.0011
1.57333	0.0024
1.57667	0.0036
1.58000	0.0026
1.58333	0.0027
1.58667	0.0016
1.59000	0.0011
1.59333	0.0024
1.59667	0.0043
1.60000	0.0049
1.60333	0.0071
1.60667	0.0079
1.61000	0.0032
1.61333	0.0026
1.61667	0.0037
1.62000	0.0026
1.62333	0.0034
1.62667	0.0033
1.63000	0.0037
1.63333	0.0019
1.63667	0.0025
1.64000	0.0051
1.64333	0.0038
1.64667	0.0023
1.65000	0.0020
1.65333	0.0034
1.65667	0.0032
1.66000	0.0037
1.66333	0.0025
1.66667	0.0028
1.67000	0.0066
1.67333	0.0064
1.67667	0.0068
1.68000	0.0048
1.68333	0.0011
1.68667	0.0030
1.69000	0.0039
1.69333	0.0040
1.69667	0.0025
1.70000	0.0035
1.70333	0.0032
1.70667	0.0038
1.71000	0.0032
1.71333	0.0038
1.71667	0.0032
1.72000	0.0038
1.72333	0.0032
1.72667	0.0038
1.73000	0.0032
1.73333	0.0045
1.73667	0.0065
1.74000	0.0047
1.74333	0.0033
1.74667	0.0046
1.75000	0.0034
1.75333	0.0038
1.75667	0.0040
1.76000	0.0032
1.76333	0.0030
1.76667	0.0038
1.77000	0.0040
1.77333	0.0040
1.77667	0.0072
1.78000	0.0056
1.78333	0.0058
1.78667	0.0060
1.79000	0.0044
1.79333	0.0048
1.79667	0.0066
1.80000	0.0078
1.80333	0.0064
1.80667	0.0044
1.81000	0.0048
1.81333	0.0042
1.81667	0.0056
1.82000	0.0068
1.82333	0.0045
1.82667	0.0057
1.83000	0.0035
1.83333	0.0030
1.83667	0.0038
1.84000	0.0023
1.84333	0.0037
1.84667	0.0040
1.85000	0.0040
1.85333	0.0032
1.85667	0.0022
1.86000	0.0037
1.86333	0.0006
1.86667	0.0009
1.87000	0.0044
1.87333	0.0075
1.87667	0.0071
1.88000	0.0044
1.88333	0.0032
1.88667	0.0047
1.89000	0.0059
1.89333	0.0060
1.89667	0.0034
1.90000	0.0013
1.90333	0.0028
1.90667	0.0065
1.91000	0.0052
1.91333	0.0041
1.91667	0.0049
1.92000	0.0068
1.92333	0.0035
1.92667	0.0039
1.93000	0.0031
1.93333	0.0012
1.93667	0.0046
1.94000	0.0068
1.94333	0.0052
1.94667	0.0077
1.95000	0.0062
1.95333	0.0060
1.95667	0.0069
1.96000	0.0061
1.96333	0.0033
1.96667	0.0003
1.97000	0.0028
1.97333	0.0058
1.97667	0.0069
1.98000	0.0070
1.98333	0.0089
1.98667	0.0062
1.99000	0.0032
1.99333	0.0039
1.99667	0.0031
2.00000	0.0049
2.00333	0.0050
2.00667	0.0022
2.01000	0.0001
2.01333	0.0019
2.01667	0.0039
2.02000	0.0040
2.02333	0.0069
2.02667	0.0099
2.03000	0.0062
2.03333	0.0050
2.03667	0.0031
2.04000	0.0059
2.04333	0.0041
2.04667	0.0050
2.05000	0.0040
2.05333	0.0050
2.05667	0.0040
2.06000	0.0030
2.06333	0.0069
2.06667	0.0021
2.07000	0.0040
2.07333	0.0030
2.07667	0.0050
2.08000	0.0040
2.08333	0.0050
2.08667	0.0070
2.09000	0.0090
2.09333	0.0060
2.09667	0.0080
2.10000	0.0070
2.10333	0.0045
2.10667	0.0042
2.11000	0.0041
2.11333	0.0041
2.11667	0.0040
2.12000	0.0055
2.12333	0.0058
2.12667	0.0064
2.13000	0.0062
2.13333	0.0066
2.13667	0.0093
2.14000	0.0087
2.14333	0.0078
2.14667	0.0059
2.15000	0.0064
2.15333	0.0052
2.15667	0.0051
2.16000	0.0071
2.16333	0.0065
2.16667	0.0073
2.17000	0.0077
2.17333	0.0083
2.17667	0.0077
2.18000	0.0073
2.18333	0.0056
2.18667	0.0048
2.19000	0.0044
2.19333	0.0052
2.19667	0.0051
2.20000	0.0066
2.20333	0.0068
2.20667	0.0064
2.21000	0.0088
2.21333	0.0099
2.21667	0.0089
2.22000	0.0084
2.22333	0.0072
2.22667	0.0055
2.23000	0.0058
2.23333	0.0043
2.23667	0.0026
2.24000	0.0039
2.24333	0.0045
2.24667	0.0053
2.25000	0.0056
2.25333	0.0043
2.25667	0.0047
2.26000	0.0059
2.26333	0.0054
2.26667	0.0052
2.27000	0.0056
2.27333	0.0064
2.27667	0.0067
2.28000	0.0063
2.28333	0.0067
2.28667	0.0053
2.29000	0.0062
2.29333	0.0066
2.29667	0.0068
2.30000	0.0064
2.30333	0.0078
2.30667	0.0063
2.31000	0.0077
2.31333	0.0073
2.31667	0.0050
2.32000	0.0034
2.32333	0.0026
2.32667	0.0039
2.33000	0.0050
2.33333	0.0050
2.33667	0.0056
2.34000	0.0063
2.34333	0.0056
2.34667	0.0064
2.35000	0.0067
2.35333	0.0063
2.35667	0.0062
2.36000	0.0088
2.36333	0.0083
2.36667	0.0065
2.37000	0.0046
2.37333	0.0043
2.37667	0.0063
2.38000	0.0067
2.38333	0.0069
2.38667	0.0069
2.39000	0.0070
2.39333	0.0075
2.39667	0.0067
2.40000	0.0074
2.40333	0.0083
2.40667	0.0070
2.41000	0.0064
2.41333	0.0046
2.41667	0.0059
2.42000	0.0065
2.42333	0.0068
2.42667	0.0092
2.43000	0.0096
2.43333	0.0087
2.43667	0.0095
2.44000	0.0109
2.44333	0.0104
2.44667	0.0096
2.45000	0.0087
2.45333	0.0078
2.45667	0.0084
2.46000	0.0071
2.46333	0.0082
2.46667	0.0081
2.47000	0.0097
2.47333	0.0088
2.47667	0.0107
2.48000	0.0124
2.48333	0.0088
2.48667	0.0072
2.49000	0.0065
2.49333	0.0062
2.49667	0.0061
2.50000	0.0067
2.50333	0.0080
2.50667	0.0085
2.51000	0.0071
2.51333	0.0065
2.51667	0.0062
2.52000	0.0061
2.52333	0.0066
2.52667	0.0074
2.53000	0.0061
2.53333	0.0072
2.53667	0.0077
2.54000	0.0078
2.54333	0.0074
2.54667	0.0078
2.55000	0.0096
2.55333	0.0098
2.55667	0.0098
2.56000	0.0077
2.56333	0.0078
2.56667	0.0069
2.57000	0.0098
2.57333	0.0093
2.57667	0.0086
2.58000	0.0089
2.58333	0.0112
2.58667	0.0105
2.59000	0.0096
2.59333	0.0092
2.59667	0.0086
2.60000	0.0094
2.60333	0.0092
2.60667	0.0090
2.61000	0.0085
2.61333	0.0099
2.61667	0.0089
2.62000	0.0107
2.62333	0.0102
2.62667	0.0084
2.63000	0.0089
2.63333	0.0118
2.63667	0.0108
2.64000	0.0120
2.64333	0.0108
2.64667	0.0103
2.65000	0.0094
2.65333	0.0081
2.65667	0.0087
2.66000	0.0095
2.66333	0.0099
2.66667	0.0110
2.67000	0.0099
2.67333	0.0105
2.67667	0.0102
2.68000	0.0107
2.68333	0.0108
2.68667	0.0104
2.69000	0.0106
2.69333	0.0085
2.69667	0.0087
2.70000	0.0078
2.70333	0.0085
2.70667	0.0089
2.71000	0.0100
2.71333	0.0089
2.71667	0.0101
2.72000	0.0095
2.72333	0.0103
2.72667	0.0097
2.73000	0.0111
2.73333	0.0116
2.73667	0.0111
2.74000	0.0100
2.74333	0.0114
2.74667	0.0136
2.75000	0.0136
2.75333	0.0114
2.75667	0.0111
2.76000	0.0098
2.76333	0.0100
2.76667	0.0106
2.77000	0.0111
2.77333	0.0134
2.77667	0.0131
2.78000	0.0122
2.78333	0.0098
2.78667	0.0112
2.79000	0.0115
2.79333	0.0101
2.79667	0.0114
2.80000	0.0124
2.80333	0.0128
2.80667	0.0134
2.81000	0.0120
2.81333	0.0119
2.81667	0.0115
2.82000	0.0123
2.82333	0.0115
2.82667	0.0119
2.83000	0.0127
2.83333	0.0140
2.83667	0.0128
2.84000	0.0130
2.84333	0.0136
2.84667	0.0139
2.85000	0.0139
2.85333	0.0133
2.85667	0.0132
2.86000	0.0136
2.86333	0.0129
2.86667	0.0147
2.87000	0.0141
2.87333	0.0130
2.87667	0.0144
2.88000	0.0157
2.88333	0.0135
2.88667	0.0136
2.89000	0.0119
2.89333	0.0108
2.89667	0.0116
2.90000	0.0116
2.90333	0.0101
2.90667	0.0108
2.91000	0.0117
2.91333	0.0132
2.91667	0.0137
2.92000	0.0136
2.92333	0.0114
2.92667	0.0121
2.93000	0.0145
2.93333	0.0142
2.93667	0.0139
2.94000	0.0128
2.94333	0.0133
2.94667	0.0118
2.95000	0.0115
2.95333	0.0126
2.95667	0.0141
2.96000	0.0143
2.96333	0.0157
2.96667	0.0140
2.97000	0.0141
2.97333	0.0147
2.97667	0.0149
2.98000	0.0149
2.98333	0.0143
2.98667	0.0138
2.99000	0.0121
2.99333	0.0122
2.99667	0.0134
3.00000	0.0140
3.00333	0.0156
3.00667	0.0178
3.01000	0.0177
3.01333	0.0165
3.01667	0.0158
3.02000	0.0168
3.02333	0.0146
3.02667	0.0123
3.03000	0.0124
3.03333	0.0139
3.03667	0.0140
3.04000	0.0173
3.04333	0.0180
3.04667	0.0162
3.05000	0.0169
3.05333	0.0175
3.05667	0.0171
3.06000	0.0165
3.06333	0.0168
3.06667	0.0171
3.07000	0.0176
3.07333	0.0174
3.07667	0.0188
3.08000	0.0208
3.08333	0.0205
3.08667	0.0183
3.09000	0.0175
3.09333	0.0147
3.09667	0.0148
3.10000	0.0144
3.10333	0.0151
3.10667	0.0162
3.11000	0.0158
3.11333	0.0148
3.11667	0.0158
3.12000	0.0163
3.12333	0.0156
3.12667	0.0157
3.13000	0.0152
3.13333	0.0152
3.13667	0.0156
3.14000	0.0155
3.14333	0.0164
3.14667	0.0158
3.15000	0.0146
3.15333	0.0146
3.15667	0.0158
3.16000	0.0151
3.16333	0.0168
3.16667	0.0164
3.17000	0.0168
3.17333	0.0171
3.17667	0.0174
3.18000	0.0166
3.18333	0.0172
3.18667	0.0181
3.19000	0.0175
3.19333	0.0177
3.19667	0.0175
3.20000	0.0190
3.20333	0.0203
3.20667	0.0179
3.21000	0.0163
3.21333	0.0158
3.21667	0.0186
3.22000	0.0170
3.22333	0.0168
3.22667	0.0159
3.23000	0.0157
3.23333	0.0191
3.23667	0.0190
3.24000	0.0190
3.24333	0.0192
3.24667	0.0202
3.25000	0.0222
3.25333	0.0223
3.25667	0.0207
3.26000	0.0199
3.26333	0.0182
3.26667	0.0167
3.27000	0.0164
3.27333	0.0170
3.27667	0.0177
3.28000	0.0189
3.28333	0.0217
3.28667	0.0194
3.29000	0.0182
3.29333	0.0193
3.29667	0.0189
3.30000	0.0181
3.30333	0.0175
3.30667	0.0175
3.31000	0.0177
3.31333	0.0217
3.31667	0.0224
3.32000	0.0202
3.32333	0.0199
3.32667	0.0191
3.33000	0.0189
3.33333	0.0198
3.33667	0.0187
3.34000	0.0182
3.34333	0.0165
3.34667	0.0182
3.35000	0.0196
3.35333	0.0183
3.35667	0.0177
3.36000	0.0190
3.36333	0.0205
3.36667	0.0201
3.37000	0.0182
3.37333	0.0188
3.37667	0.0189
3.38000	0.0192
3.38333	0.0202
3.38667	0.0217
3.39000	0.0222
3.39333	0.0205
3.39667	0.0184
3.40000	0.0180
3.40333	0.0169
3.40667	0.0198
3.41000	0.0219
3.41333	0.0220
3.41667	0.0220
3.42000	0.0222
3.42333	0.0232
3.42667	0.0250
3.43000	0.0262
3.43333	0.0256
3.43667	0.0238
3.44000	0.0224
3.44333	0.0236
3.44667	0.0234
3.45000	0.0224
3.45333	0.0226
3.45667	0.0234
3.46000	0.0224
3.46333	0.0211
3.46667	0.0222
3.47000	0.0235
3.47333	0.0236
3.47667	0.0229
3.48000	0.0232
3.48333	0.0250
3.48667	0.0252
3.49000	0.0246
3.49333	0.0217
3.49667	0.0212
3.50000	0.0225
3.50333	0.0239
3.50667	0.0262
3.51000	0.0266
3.51333	0.0259
3.51667	0.0247
3.52000	0.0237
3.52333	0.0244
3.52667	0.0254
3.53000	0.0243
3.53333	0.0221
3.53667	0.0220
3.54000	0.0255
3.54333	0.0269
3.54667	0.0254
3.55000	0.0239
3.55333	0.0234
3.55667	0.0226
3.56000	0.0224
3.56333	0.0216
3.56667	0.0219
3.57000	0.0225
3.57333	0.0234
3.57667	0.0239
3.58000	0.0255
3.58333	0.0251
3.58667	0.0229
3.59000	0.0234
3.59333	0.0261
3.59667	0.0244
3.60000	0.0223
3.60333	0.0233
3.60667	0.0275
3.61000	0.0288
3.61333	0.0285
3.61667	0.0289
3.62000	0.0284
3.62333	0.0265
3.62667	0.0263
3.63000	0.0289
3.63333	0.0281
3.63667	0.0279
3.64000	0.0285
3.64333	0.0252
3.64667	0.0238
3.65000	0.0248
3.65333	0.0262
3.65667	0.0260
3.66000	0.0266
3.66333	0.0277
3.66667	0.0276
3.67000	0.0262
3.67333	0.0254
3.67667	0.0270
3.68000	0.0278
3.68333	0.0267
3.68667	0.0249
3.69000	0.0250
3.69333	0.0256
3.69667	0.0264
3.70000	0.0251
3.70333	0.0251
3.70667	0.0270
3.71000	0.0286
3.71333	0.0313
3.71667	0.0309
3.72000	0.0291
3.72333	0.0289
3.72667	0.0291
3.73000	0.0286
3.73333	0.0286
3.73667	0.0291
3.74000	0.0299
3.74333	0.0295
3.74667	0.0296
3.75000	0.0291
3.75333	0.0280
3.75667	0.0271
3.76000	0.0275
3.76333	0.0274
3.76667	0.0286
3.77000	0.0294
3.77333	0.0280
3.77667	0.0275
3.78000	0.0294
3.78333	0.0310
3.78667	0.0307
3.79000	0.0286
3.79333	0.0277
3.79667	0.0279
3.80000	0.0291
3.80333	0.0292
3.80667	0.0278
3.81000	0.0283
3.81333	0.0292
3.81667	0.0313
3.82000	0.0324
3.82333	0.0316
3.82667	0.0316
3.83000	0.0296
3.83333	0.0290
3.83667	0.0310
3.84000	0.0311
3.84333	0.0298
3.84667	0.0307
3.85000	0.0310
3.85333	0.0301
3.85667	0.0320
3.86000	0.0321
3.86333	0.0296
3.86667	0.0291
3.87000	0.0310
3.87333	0.0311
3.87667	0.0290
3.88000	0.0297
3.88333	0.0316
3.88667	0.0323
3.89000	0.0325
3.89333	0.0317
3.89667	0.0319
3.90000	0.0340
3.90333	0.0336
3.90667	0.0323
3.91000	0.0321
3.91333	0.0316
3.91667	0.0327
3.92000	0.0334
3.92333	0.0335
3.92667	0.0343
3.93000	0.0336
3.93333	0.0331
3.93667	0.0338
3.94000	0.0348
3.94333	0.0345
3.94667	0.0333
3.95000	0.0343
3.95333	0.0344
3.95667	0.0333
3.96000	0.0343
3.96333	0.0353
3.96667	0.0355
3.97000	0.0363
3.97333	0.0356
3.97667	0.0356
3.98000	0.0372
3.98333	0.0361
3.98667	0.0352
3.99000	0.0363
3.99333	0.0356
3.99667	0.0356
4.00000	0.0368
4.00333	0.0383
4.00667	0.0393
4.01000	0.0381
4.01333	0.0358
4.01667	0.0348
4.02000	0.0359
4.02333	0.0364
4.02667	0.0351
4.03000	0.0346
4.03333	0.0345
4.03667	0.0341
4.04000	0.0340
4.04333	0.0354
4.04667	0.0358
4.05000	0.0356
4.05333	0.0341
4.05667	0.0333
4.06000	0.0329
4.06333	0.0331
4.06667	0.0353
4.07000	0.0367
4.07333	0.0374
4.07667	0.0379
4.08000	0.0365
4.08333	0.0343
4.08667	0.0347
4.09000	0.0373
4.09333	0.0397
4.09667	0.0403
4.10000	0.0400
4.10333	0.0390
4.10667	0.0381
4.11000	0.0370
4.11333	0.0357
4.11667	0.0371
4.12000	0.0377
4.12333	0.0386
4.12667	0.0393
4.13000	0.0385
4.13333	0.0401
4.13667	0.0402
4.14000	0.0392
4.14333	0.0390
4.14667	0.0385
4.15000	0.0386
4.15333	0.0395
4.15667	0.0404
4.16000	0.0399
4.16333	0.0402
4.16667	0.0398
4.17000	0.0402
4.17333	0.0404
4.17667	0.0400
4.18000	0.0400
4.18333	0.0389
4.18667	0.0365
4.19000	0.0384
4.19333	0.0417
4.19667	0.0412
4.20000	0.0391
4.20333	0.0376
4.20667	0.0393
4.21000	0.0413
4.21333	0.0414
4.21667	0.0422
4.22000	0.0412
4.22333	0.0429
4.22667	0.0447
4.23000	0.0438
4.23333	0.0414
4.23667	0.0407
4.24000	0.0421
4.24333	0.0429
4.24667	0.0436
4.25000	0.0428
4.25333	0.0427
4.25667	0.0441
4.26000	0.0449
4.26333	0.0444
4.26667	0.0429
4.27000	0.0421
4.27333	0.0426
4.27667	0.0424
4.28000	0.0415
4.28333	0.0422
4.28667	0.0429
4.29000	0.0430
4.29333	0.0424
4.29667	0.0426
4.30000	0.0442
4.30333	0.0443
4.30667	0.0452
4.31000	0.0435
4.31333	0.0428
4.31667	0.0424
4.32000	0.0408
4.32333	0.0407
4.32667	0.0416
4.33000	0.0432
4.33333	0.0427
4.33667	0.0433
4.34000	0.0452
4.34333	0.0453
4.34667	0.0450
4.35000	0.0463
4.35333	0.0469
4.35667	0.0457
4.36000	0.0457
4.36333	0.0453
4.36667	0.0463
4.37000	0.0482
4.37333	0.0483
4.37667	0.0512
4.38000	0.0515
4.38333	0.0491
4.38667	0.0468
4.39000	0.0474
4.39333	0.0512
4.39667	0.0535
4.40000	0.0533
4.40333	0.0511
4.40667	0.0475
4.41000	0.0475
4.41333	0.0460
4.41667	0.0477
4.42000	0.0509
4.42333	0.0506
4.42667	0.0474
4.43000	0.0481
4.43333	0.0503
4.43667	0.0509
4.44000	0.0483
4.44333	0.0471
4.44667	0.0477
4.45000	0.0500
4.45333	0.0502
4.45667	0.0534
4.46000	0.0528
4.46333	0.0534
4.46667	0.0567
4.47000	0.0544
4.47333	0.0545
4.47667	0.0536
4.48000	0.0530
4.48333	0.0544
4.48667	0.0507
4.49000	0.0505
4.49333	0.0517
4.49667	0.0541
4.50000	0.0535
4.50333	0.0502
4.50667	0.0555
4.51000	0.0535
4.51333	0.0521
4.51667	0.0527
4.52000	0.0523
4.52333	0.0506
4.52667	0.0537
4.53000	0.0534
4.53333	0.0530
4.53667	0.0508
4.54000	0.0515
4.54333	0.0505
4.54667	0.0515
4.55000	0.0542
4.55333	0.0557
4.55667	0.0545
4.56000	0.0533
4.56333	0.0523
4.56667	0.0535
4.57000	0.0540
4.57333	0.0548
4.57667	0.0550
4.58000	0.0550
4.58333	0.0558
4.58667	0.0560
4.59000	0.0560
4.59333	0.0545
4.59667	0.0556
4.60000	0.0552
4.60333	0.0558
4.60667	0.0583
4.61000	0.0566
4.61333	0.0576
4.61667	0.0611
4.62000	0.0612
4.62333	0.0594
4.62667	0.0567
4.63000	0.0576
4.63333	0.0588
4.63667	0.0574
4.64000	0.0570
4.64333	0.0578
4.64667	0.0588
4.65000	0.0574
4.65333	0.0586
4.65667	0.0598
4.66000	0.0600
4.66333	0.0600
4.66667	0.0608
4.67000	0.0594
4.67333	0.0598
4.67667	0.0608
4.68000	0.0618
4.68333	0.0620
4.68667	0.0612
4.69000	0.0618
4.69333	0.0620
4.69667	0.0637
4.70000	0.0640
4.70333	0.0640
4.70667	0.0632
4.71000	0.0638
4.71333	0.0615
4.71667	0.0602
4.72000	0.0642
4.72333	0.0633
4.72667	0.0639
4.73000	0.0640
4.73333	0.0631
4.73667	0.0613
4.74000	0.0636
4.74333	0.0631
4.74667	0.0630
4.75000	0.0604
4.75333	0.0609
4.75667	0.0601
4.76000	0.0609
4.76333	0.0636
4.76667	0.0649
4.77000	0.0650
4.77333	0.0677
4.77667	0.0671
4.78000	0.0652
4.78333	0.0650
4.78667	0.0677
4.79000	0.0680
4.79333	0.0635
4.79667	0.0648
4.80000	0.0677
4.80333	0.0680
4.80667	0.0698
4.81000	0.0664
4.81333	0.0687
4.81667	0.0699
4.82000	0.0691
4.82333	0.0672
4.82667	0.0661
4.83000	0.0669
4.83333	0.0698
4.83667	0.0682
4.84000	0.0708
4.84333	0.0719
4.84667	0.0692
4.85000	0.0699
4.85333	0.0709
4.85667	0.0682
4.86000	0.0689
4.86333	0.0681
4.86667	0.0727
4.87000	0.0702
4.87333	0.0719
4.87667	0.0691
4.88000	0.0690
4.88333	0.0700
4.88667	0.0690
4.89000	0.0700
4.89333	0.0710
4.89667	0.0710
4.90000	0.0720
4.90333	0.0720
4.90667	0.0720
4.91000	0.0739
4.91333	0.0720
4.91667	0.0730
4.92000	0.0710
4.92333	0.0720
4.92667	0.0720
4.93000	0.0770
4.93333	0.0730
4.93667	0.0730
4.94000	0.0720
4.94333	0.0760
4.94667	0.0750
4.95000	0.0710
4.95333	0.0750
4.95667	0.0755
4.96000	0.0752
4.96333	0.0726
4.96667	0.0738
4.97000	0.0734
4.97333	0.0737
4.97667	0.0739
4.98000	0.0744
4.98333	0.0752
4.98667	0.0776
4.99000	0.0788
4.99333	0.0779
4.99667	0.0759
5.00000	0.0775
5.00333	0.0783
5.00667	0.0766
5.01000	0.0768
5.01333	0.0764
5.01667	0.0772
5.02000	0.0781
5.02333	0.0786
5.02667	0.0783
5.03000	0.0781
5.03333	0.0781
5.03667	0.0785
5.04000	0.0793
5.04333	0.0807
5.04667	0.0793
5.05000	0.0781
5.05333	0.0765
5.05667	0.0768
5.06000	0.0784
5.06333	0.0798
5.06667	0.0788
5.07000	0.0784
5.07333	0.0782
5.07667	0.0781
5.08000	0.0781
5.08333	0.0801
5.08667	0.0785
5.09000	0.0793
5.09333	0.0807
5.09667	0.0803
5.10000	0.0807
5.10333	0.0814
5.10667	0.0828
5.11000	0.0829
5.11333	0.0835
5.11667	0.0853
5.12000	0.0857
5.12333	0.0843
5.12667	0.0852
5.13000	0.0856
5.13333	0.0853
5.13667	0.0851
5.14000	0.0845
5.14333	0.0848
5.14667	0.0860
5.15000	0.0854
5.15333	0.0847
5.15667	0.0843
5.16000	0.0836
5.16333	0.0838
5.16667	0.0861
5.17000	0.0860
5.17333	0.0860
5.17667	0.0860
5.18000	0.0892
5.18333	0.0880
5.18667	0.0891
5.19000	0.0890
5.19333	0.0885
5.19667	0.0893
5.20000	0.0892
5.20333	0.0902
5.20667	0.0906
5.21000	0.0908
5.21333	0.0893
5.21667	0.0891
5.22000	0.0891
5.22333	0.0890
5.22667	0.0896
5.23000	0.0904
5.23333	0.0907
5.23667	0.0903
5.24000	0.0885
5.24333	0.0882
5.24667	0.0892
5.25000	0.0880
5.25333	0.0891
5.25667	0.0907
5.26000	0.0903
5.26333	0.0879
5.26667	0.0891
5.27000	0.0913
5.27333	0.0928
5.27667	0.0940
5.28000	0.0946
5.28333	0.0948
5.28667	0.0960
5.29000	0.0948
5.29333	0.0927
5.29667	0.0918
5.30000	0.0925
5.30333	0.0933
5.30667	0.0926
5.31000	0.0928
5.31333	0.0929
5.31667	0.0935
5.32000	0.0937
5.32333	0.0922
5.32667	0.0910
5.33000	0.0916
5.33333	0.0935
5.33667	0.0933
5.34000	0.0942
5.34333	0.0947
5.34667	0.0954
5.35000	0.0952
5.35333	0.0951
5.35667	0.0951
5.36000	0.0957
5.36333	0.0975
5.36667	0.0973
5.37000	0.0988
5.37333	0.0978
5.37667	0.0984
5.38000	0.0976
5.38333	0.0978
5.38667	0.0969
5.39000	0.0986
5.39333	0.0989
5.39667	0.0995
5.40000	0.0986
5.40333	0.0971
5.40667	0.0966
5.41000	0.0985
5.41333	0.0989
5.41667	0.1002
5.42000	0.1029
5.42333	0.1023
5.42667	0.1004
5.43000	0.0997
5.43333	0.1011
5.43667	0.1022
5.44000	0.1021
5.44333	0.1026
5.44667	0.1017
5.45000	0.1031
5.45333	0.1048
5.45667	0.1055
5.46000	0.1052
5.46333	0.1051
5.46667	0.1051
5.47000	0.1061
5.47333	0.1043
5.47667	0.1034
5.48000	0.1021
5.48333	0.1026
5.48667	0.1029
5.49000	0.1036
5.49333	0.1044
5.49667	0.1038
5.50000	0.1067
5.50333	0.1045
5.50667	0.1042
5.51000	0.1047
5.51333	0.1054
5.51667	0.1041
5.52000	0.1052
5.52333	0.1051
5.52667	0.1057
5.53000	0.1072
5.53333	0.1088
5.53667	0.1089
5.54000	0.1085
5.54333	0.1100
5.54667	0.1100
5.55000	0.1106
5.55333	0.1108
5.55667	0.1109
5.56000	0.1109
5.56333	0.1103
5.56667	0.1096
5.57000	0.1097
5.57333	0.1086
5.57667	0.1071
5.58000	0.1076
5.58333	0.1073
5.58667	0.1084
5.59000	0.1086
5.59333	0.1072
5.59667	0.1089
5.60000	0.1096
5.60333	0.1099
5.60667	0.1114
5.61000	0.1137
5.61333	0.1149
5.61667	0.1135
5.62000	0.1108
5.62333	0.1111
5.62667	0.1126
5.63000	0.1105
5.63333	0.1109
5.63667	0.1115
5.64000	0.1115
5.64333	0.1143
5.64667	0.1152
5.65000	0.1140
5.65333	0.1151
5.65667	0.1138
5.66000	0.1141
5.66333	0.1153
5.66667	0.1166
5.67000	0.1185
5.67333	0.1175
5.67667	0.1166
5.68000	0.1163
5.68333	0.1171
5.68667	0.1151
5.69000	0.1138
5.69333	0.1140
5.69667	0.1147
5.70000	0.1156
5.70333	0.1164
5.70667	0.1164
5.71000	0.1185
5.71333	0.1181
5.71667	0.1167
5.72000	0.1163
5.72333	0.1169
5.72667	0.1183
5.73000	0.1193
5.73333	0.1192
5.73667	0.1196
5.74000	0.1192
5.74333	0.1188
5.74667	0.1172
5.75000	0.1177
5.75333	0.1180
5.75667	0.1183
5.76000	0.1166
5.76333	0.1189
5.76667	0.1202
5.77000	0.1202
5.77333	0.1214
5.77667	0.1215
5.78000	0.1200
5.78333	0.1200
5.78667	0.1203
5.79000	0.1219
5.79333	0.1220
5.79667	0.1223
5.80000	0.1239
5.80333	0.1240
5.80667	0.1239
5.81000	0.1231
5.81333	0.1217
5.81667	0.1210
5.82000	0.1194
5.82333	0.1214
5.82667	0.1236
5.83000	0.1234
5.83333	0.1243
5.83667	0.1239
5.84000	0.1230
5.84333	0.1241
5.84667	0.1236
5.85000	0.1244
5.85333	0.1244
5.85667	0.1261
5.86000	0.1271
5.86333	0.1293
5.86667	0.1275
5.87000	0.1254
5.87333	0.1260
5.87667	0.1270
5.88000	0.1260
5.88333	0.1269
5.88667	0.1253
5.89000	0.1266
5.89333	0.1283
5.89667	0.1292
5.90000	0.1285
5.90333	0.1288
5.90667	0.1287
5.91000	0.1278
5.91333	0.1285
5.91667	0.1283
5.92000	0.1286
5.92333	0.1286
5.92667	0.1300
5.93000	0.1293
5.93333	0.1292
5.93667	0.1297
5.94000	0.1297
5.94333	0.1283
5.94667	0.1271
5.95000	0.1286
5.95333	0.1305
5.95667	0.1314
5.96000	0.1287
5.96333	0.1290
5.96667	0.1302
5.97000	0.1326
5.97333	0.1331
5.97667	0.1340
5.98000	0.1332
5.98333	0.1350
5.98667	0.1351
5.99000	0.1356
5.99333	0.1351
5.99667	0.1341
6.00000	0.1328
6.00333	0.1333
6.00667	0.1352
6.01000	0.1352
6.01333	0.1327
6.01667	0.1310
6.02000	0.1317
6.02333	0.1349
6.02667	0.1369
6.03000	0.1370
6.03333	0.1367
6.03667	0.1355
6.04000	0.1357
6.04333	0.1373
6.04667	0.1351
6.05000	0.1355
6.05333	0.1369
6.05667	0.1364
6.06000	0.1365
6.06333	0.1358
6.06667	0.1369
6.07000	0.1381
6.07333	0.1372
6.07667	0.1362
6.08000	0.1361
6.08333	0.1385
6.08667	0.1383
6.09000	0.1386
6.09333	0.1382
6.09667	0.1382
6.10000	0.1384
6.10333	0.1382
6.10667	0.1406
6.11000	0.1403
6.11333	0.1410
6.11667	0.1412
6.12000	0.1395
6.12333	0.1386
6.12667	0.1380
6.13000	0.1362
6.13333	0.1394
6.13667	0.1418
6.14000	0.1418
6.14333	0.1418
6.14667	0.1428
6.15000	0.1412
6.15333	0.1398
6.15667	0.1403
6.16000	0.1417
6.16333	0.1423
6.16667	0.1419
6.17000	0.1438
6.17333	0.1443
6.17667	0.1410
6.18000	0.1392
6.18333	0.1382
6.18667	0.1401
6.19000	0.1420
6.19333	0.1422
6.19667	0.1430
6.20000	0.1435
6.20333	0.1428
6.20667	0.1419
6.21000	0.1429
6.21333	0.1433
6.21667	0.1422
6.22000	0.1421
6.22333	0.1440
6.22667	0.1438
6.23000	0.1434
6.23333	0.1444
6.23667	0.1465
6.24000	0.1476
6.24333	0.1479
6.24667	0.1476
6.25000	0.1466
6.25333	0.1463
6.25667	0.1444
6.26000	0.1432
6.26333	0.1434
6.26667	0.1462
6.27000	0.1475
6.27333	0.1472
6.27667	0.1454
6.28000	0.1452
6.28333	0.1468
6.28667	0.1460
6.29000	0.1455
6.29333	0.1461
6.29667	0.1472
6.30000	0.1483
6.30333	0.1479
6.30667	0.1479
6.31000	0.1492
6.31333	0.1482
6.31667	0.1465
6.32000	0.1481
6.32333	0.1493
6.32667	0.1488
6.33000	0.1482
6.33333	0.1478
6.33667	0.1479
6.34000	0.1492
6.34333	0.1498
6.34667	0.1510
6.35000	0.1507
6.35333	0.1519
6.35667	0.1532
6.36000	0.1531
6.36333	0.1503
6.36667	0.1501
6.37000	0.1505
6.37333	0.1514
6.37667	0.1508
6.38000	0.1502
6.38333	0.1503
6.38667	0.1503
6.39000	0.1498
6.39333	0.1507
6.39667	0.1509
6.40000	0.1507
6.40333	0.1504
6.40667	0.1514
6.41000	0.1521
6.41333	0.1520
6.41667	0.1530
6.42000	0.1528
6.42333	0.1529
6.42667	0.1525
6.43000	0.1547
6.43333	0.1549
6.43667	0.1537
6.44000	0.1556
6.44333	0.1587
6.44667	0.1592
6.45000	0.1606
6.45333	0.1613
6.45667	0.1587
6.46000	0.1572
6.46333	0.1573
6.46667	0.1566
6.47000	0.1566
6.47333	0.1567
6.47667	0.1583
6.48000	0.1582
6.48333	0.1557
6.48667	0.1560
6.49000	0.1570
6.49333	0.1568
6.49667	0.1580
6.50000	0.1585
6.50333	0.1578
6.50667	0.1575
6.51000	0.1582
6.51333	0.1585
6.51667	0.1584
6.52000	0.1577
6.52333	0.1556
6.52667	0.1560
6.53000	0.1585
6.53333	0.1604
6.53667	0.1609
6.54000	0.1604
6.54333	0.1596
6.54667	0.1599
6.55000	0.1594
6.55333	0.1599
6.55667	0.1610
6.56000	0.1591
6.56333	0.1586
6.56667	0.1579
6.57000	0.1571
6.57333	0.1591
6.57667	0.1611
6.58000	0.1610
6.58333	0.1610
6.58667	0.1603
6.59000	0.1596
6.59333	0.1602
6.59667	0.1608
6.60000	0.1613
6.60333	0.1625
6.60667	0.1630
6.61000	0.1629
6.61333	0.1644
6.61667	0.1640
6.62000	0.1613
6.62333	0.1609
6.62667	0.1618
6.63000	0.1616
6.63333	0.1611
6.63667	0.1610
6.64000	0.1603
6.64333	0.1596
6.64667	0.1606
6.65000	0.1617
6.65333	0.1627
6.65667	0.1627
6.66000	0.1631
6.66333	0.1643
6.66667	0.1633
6.67000	0.1634
6.67333	0.1650
6.67667	0.1655
6.68000	0.1654
6.68333	0.1656
6.68667	0.1643
6.69000	0.1644
6.69333	0.1653
6.69667	0.1662
6.70000	0.1661
6.70333	0.1656
6.70667	0.1663
6.71000	0.1669
6.71333	0.1681
6.71667	0.1689
6.72000	0.1686
6.72333	0.1670
6.72667	0.1665
6.73000	0.1658
6.73333	0.1651
6.73667	0.1667
6.74000	0.1669
6.74333	0.1674
6.74667	0.1671
6.75000	0.1678
6.75333	0.1700
6.75667	0.1700
6.76000	0.1680
6.76333	0.1676
6.76667	0.1675
6.77000	0.1667
6.77333	0.1665
6.77667	0.1686
6.78000	0.1689
6.78333	0.1686
6.78667	0.1693
6.79000	0.1686
6.79333	0.1685
6.79667	0.1693
6.80000	0.1711
6.80333	0.1697
6.80667	0.1679
6.81000	0.1692
6.81333	0.1699
6.81667	0.1700
6.82000	0.1696
6.82333	0.1687
6.82667	0.1677
6.83000	0.1676
6.83333	0.1697
6.83667	0.1703
6.84000	0.1688
6.84333	0.1677
6.84667	0.1680
6.85000	0.1675
6.85333	0.1671
6.85667	0.1679
6.86000	0.1684
6.86333	0.1689
6.86667	0.1708
6.87000	0.1726
6.87333	0.1720
6.87667	0.1721
6.88000	0.1715
6.88333	0.1707
6.88667	0.1714
6.89000	0.1710
6.89333	0.1711
6.89667	0.1714
6.90000	0.1711
6.90333	0.1715
6.90667	0.1719
6.91000	0.1720
6.91333	0.1720
6.91667	0.1710
6.92000	0.1711
6.92333	0.1723
6.92667	0.1734
6.93000	0.1729
6.93333	0.1731
6.93667	0.1729
6.94000	0.1721
6.94333	0.1725
6.94667	0.1734
6.95000	0.1739
6.95333	0.1745
6.95667	0.1730
6.96000	0.1713
6.96333	0.1735
6.96667	0.1751
6.97000	0.1725
6.97333	0.1719
6.97667	0.1749
6.98000	0.1757
6.98333	0.1751
6.98667	0.1745
6.99000	0.1746
6.99333	0.1744
6.99667	0.1720
7.00000	0.1729
7.00333	0.1757
7.00667	0.1758
7.01000	0.1756
7.01333	0.1744
7.01667	0.1742
7.02000	0.1744
7.02333	0.1741
7.02667	0.1730
7.03000	0.1732
7.03333	0.1734
7.03667	0.1730
7.04000	0.1709
7.04333	0.1725
7.04667	0.1747
7.05000	0.1750
7.05333	0.1766
7.05667	0.1762
7.06000	0.1762
7.06333	0.1775
7.06667	0.1785
7.07000	0.1762
7.07333	0.1759
7.07667	0.1763
7.08000	0.1766
7.08333	0.1764
7.08667	0.1760
7.09000	0.1777
7.09333	0.1794
7.09667	0.1799
7.10000	0.1772
7.10333	0.1747
7.10667	0.1752
7.11000	0.1788
7.11333	0.1779
7.11667	0.1780
7.12000	0.1789
7.12333	0.1767
7.12667	0.1746
7.13000	0.1776
7.13333	0.1797
7.13667	0.1782
7.14000	0.1783
7.14333	0.1789
7.14667	0.1796
7.15000	0.1788
7.15333	0.1787
7.15667	0.1796
7.16000	0.1806
7.16333	0.1816
7.16667	0.1813
7.17000	0.1786
7.17333	0.1802
7.17667	0.1812
7.18000	0.1798
7.18333	0.1797
7.18667	0.1775
7.19000	0.1780
7.19333	0.1795
7.19667	0.1806
7.20000	0.1816
7.20333	0.1807
7.20667	0.1788
7.21000	0.1800
7.21333	0.1821
7.21667	0.1829
7.22000	0.1830
7.22333	0.1843
7.22667	0.1811
7.23000	0.1811
7.23333	0.1819
7.23667	0.1826
7.24000	0.1810
7.24333	0.1801
7.24667	0.1781
7.25000	0.1778
7.25333	0.1799
7.25667	0.1822
7.26000	0.1823
7.26333	0.1820
7.26667	0.1813
7.27000	0.1824
7.27333	0.1836
7.27667	0.1840
7.28000	0.1833
7.28333	0.1817
7.28667	0.1811
7.29000	0.1803
7.29333	0.1780
7.29667	0.1784
7.30000	0.1789
7.30333	0.1804
7.30667	0.1823
7.31000	0.1843
7.31333	0.1843
7.31667	0.1840
7.32000	0.1833
7.32333	0.1823
7.32667	0.1813
7.33000	0.1803
7.33333	0.1793
7.33667	0.1804
7.34000	0.1803
7.34333	0.1800
7.34667	0.1835
7.35000	0.1821
7.35333	0.1839
7.35667	0.1835
7.36000	0.1838
7.36333	0.1826
7.36667	0.1842
7.37000	0.1835
7.37333	0.1823
7.37667	0.1827
7.38000	0.1830
7.38333	0.1844
7.38667	0.1850
7.39000	0.1835
7.39333	0.1830
7.39667	0.1823
7.40000	0.1820
7.40333	0.1827
7.40667	0.1830
7.41000	0.1823
7.41333	0.1813
7.41667	0.1825
7.42000	0.1837
7.42333	0.1862
7.42667	0.1862
7.43000	0.1868
7.43333	0.1847
7.43667	0.1833
7.44000	0.1838
7.44333	0.1840
7.44667	0.1855
7.45000	0.1837
7.45333	0.1846
7.45667	0.1842
7.46000	0.1856
7.46333	0.1844
7.46667	0.1887
7.47000	0.1868
7.47333	0.1853
7.47667	0.1850
7.48000	0.1842
7.48333	0.1840
7.48667	0.1864
7.49000	0.1878
7.49333	0.1872
7.49667	0.1886
7.50000	0.1874
7.50333	0.1878
7.50667	0.1880
7.51000	0.1848
7.51333	0.1857
7.51667	0.1892
7.52000	0.1875
7.52333	0.1838
7.52667	0.1830
7.53000	0.1806
7.53333	0.1841
7.53667	0.1858
7.54000	0.1860
7.54333	0.1835
7.54667	0.1855
7.55000	0.1827
7.55333	0.1812
7.55667	0.1827
7.56000	0.1830
7.56333	0.1847
7.56667	0.1841
7.57000	0.1882
7.57333	0.1864
7.57667	0.1852
7.58000	0.1884
7.58333	0.1839
7.58667	0.1822
7.59000	0.1837
7.59333	0.1848
7.59667	0.1858
7.60000	0.1851
7.60333	0.1876
7.60667	0.1854
7.61000	0.1867
7.61333	0.1870
7.61667	0.1879
7.62000	0.1854
7.62333	0.1850
7.62667	0.1833
7.63000	0.1830
7.63333	0.1821
7.63667	0.1882
7.64000	0.1881
7.64333	0.1871
7.64667	0.1861
7.65000	0.1860
7.65333	0.1833
7.65667	0.1830
7.66000	0.1848
7.66333	0.1868
7.66667	0.1861
7.67000	0.1842
7.67333	0.1849
7.67667	0.1859
7.68000	0.1860
7.68333	0.1869
7.68667	0.1861
7.69000	0.1851
7.69333	0.1859
7.69667	0.1851
7.70000	0.1841
7.70333	0.1831
7.70667	0.1858
7.71000	0.1879
7.71333	0.1871
7.71667	0.1842
7.72000	0.1849
7.72333	0.1888
7.72667	0.1862
7.73000	0.1869
7.73333	0.1851
7.73667	0.1841
7.74000	0.1831
7.74333	0.1859
7.74667	0.1870
7.75000	0.1860
7.75333	0.1841
7.75667	0.1869
7.76000	0.1841
7.76333	0.1850
7.76667	0.1869
7.77000	0.1850
7.77333	0.1860
7.77667	0.1850
7.78000	0.1860
7.78333	0.1850
7.78667	0.1880
7.79000	0.1860
7.79333	0.1900
7.79667	0.1860
7.80000	0.1840
7.80333	0.1860
7.80667	0.1840
7.81000	0.1860
7.81333	0.1850
7.81667	0.1835
7.82000	0.1848
7.82333	0.1859
7.82667	0.1874
7.83000	0.1877
7.83333	0.1863
7.83667	0.1867
7.84000	0.1879
7.84333	0.1884
7.84667	0.1872
7.85000	0.1856
7.85333	0.1848
7.85667	0.1839
7.86000	0.1839
7.86333	0.1855
7.86667	0.1873
7.87000	0.1887
7.87333	0.1888
7.87667	0.1884
7.88000	0.1872
7.88333	0.1861
7.88667	0.1850
7.89000	0.1855
7.89333	0.1842
7.89667	0.1846
7.90000	0.1864
7.90333	0.1857
7.90667	0.1864
7.91000	0.1877
7.91333	0.1873
7.91667	0.1856
7.92000	0.1853
7.92333	0.1867
7.92667	0.1869
7.93000	0.1864
7.93333	0.1867
7.93667	0.1848
7.94000	0.1854
7.94333	0.1873
7.94667	0.1850
7.95000	0.1845
7.95333	0.1853
7.95667	0.1862
7.96000	0.1866
7.96333	0.1873
7.96667	0.1861
7.97000	0.1855
7.97333	0.1863
7.97667	0.1867
7.98000	0.1858
7.98333	0.1859
7.98667	0.1854
7.99000	0.1863
7.99333	0.1856
7.99667	0.1869
8.00000	0.1864
8.00333	0.1856
8.00667	0.1842
8.01000	0.1841
8.01333	0.1836
8.01667	0.1875
8.02000	0.1878
8.02333	0.1890
8.02667	0.1884
8.03000	0.1871
8.03333	0.1871
8.03667	0.1870
8.04000	0.1876
8.04333	0.1878
8.04667	0.1857
8.05000	0.1864
8.05333	0.1862
8.05667	0.1866
8.06000	0.1874
8.06333	0.1877
8.06667	0.1862
8.07000	0.1850
8.07333	0.1855
8.07667	0.1842
8.08000	0.1841
8.08333	0.1840
8.08667	0.1840
8.09000	0.1840
8.09333	0.1840
8.09667	0.1846
8.10000	0.1848
8.10333	0.1843
8.10667	0.1836
8.11000	0.1844
8.11333	0.1847
8.11667	0.1849
8.12000	0.1872
8.12333	0.1876
8.12667	0.1873
8.13000	0.1877
8.13333	0.1895
8.13667	0.1897
8.14000	0.1866
8.14333	0.1879
8.14667	0.1874
8.15000	0.1888
8.15333	0.1883
8.15667	0.1859
8.16000	0.1865
8.16333	0.1857
8.16667	0.1858
8.17000	0.1854
8.17333	0.1863
8.17667	0.1872
8.18000	0.1860
8.18333	0.1860
8.18667	0.1859
8.19000	0.1838
8.19333	0.1845
8.19667	0.1847
8.20000	0.1844
8.20333	0.1854
8.20667	0.1879
8.21000	0.1857
8.21333	0.1848
8.21667	0.1854
8.22000	0.1851
8.22333	0.1840
8.22667	0.1863
8.23000	0.1861
8.23333	0.1854
8.23667	0.1846
8.24000	0.1842
8.24333	0.1835
8.24667	0.1826
8.25000	0.1817
8.25333	0.1807
8.25667	0.1803
8.26000	0.1814
8.26333	0.1834
8.26667	0.1832
8.27000	0.1832
8.27333	0.1854
8.27667	0.1863
8.28000	0.1855
8.28333	0.1841
8.28667	0.1858
8.29000	0.1866
8.29333	0.1885
8.29667	0.1881
8.30000	0.1862
8.30333	0.1844
8.30667	0.1853
8.31000	0.1838
8.31333	0.1817
8.31667	0.1824
8.32000	0.1823
8.32333	0.1850
8.32667	0.1843
8.33000	0.1830
8.33333	0.1825
8.33667	0.1834
8.34000	0.1838
8.34333	0.1845
8.34667	0.1854
8.35000	0.1863
8.35333	0.1855
8.35667	0.1839
8.36000	0.1829
8.36333	0.1841
8.36667	0.1841
8.37000	0.1852
8.37333	0.1844
8.37667	0.1834
8.38000	0.1803
8.38333	0.1811
8.38667	0.1787
8.39000	0.1791
8.39333	0.1814
8.39667	0.1823
8.40000	0.1816
8.40333	0.1825
8.40667	0.1834
8.41000	0.1837
8.41333	0.1833
8.41667	0.1837
8.42000	0.1832
8.42333	0.1818
8.42667	0.1801
8.43000	0.1801
8.43333	0.1801
8.43667	0.1813
8.44000	0.1822
8.44333	0.1815
8.44667	0.1812
8.45000	0.1812
8.45333	0.1829
8.45667	0.1835
8.46000	0.1830
8.46333	0.1808
8.46667	0.1826
8.47000	0.1810
8.47333	0.1803
8.47667	0.1796
8.48000	0.1806
8.48333	0.1827
8.48667	0.1828
8.49000	0.1817
8.49333	0.1819
8.49667	0.1820
8.50000	0.1827
8.50333	0.1831
8.50667	0.1801
8.51000	0.1800
8.51333	0.1796
8.51667	0.1815
8.52000	0.1799
8.52333	0.1788
8.52667	0.1795
8.53000	0.1792
8.53333	0.1795
8.53667	0.1775
8.54000	0.1786
8.54333	0.1807
8.54667	0.1807
8.55000	0.1797
8.55333	0.1799
8.55667	0.1801
8.56000	0.1811
8.56333	0.1800
8.56667	0.1811
8.57000	0.1805
8.57333	0.1807
8.57667	0.1802
8.58000	0.1793
8.58333	0.1778
8.58667	0.1773
8.59000	0.1773
8.59333	0.1787
8.59667	0.1812
8.60000	0.1804
8.60333	0.1797
8.60667	0.1812
8.61000	0.1815
8.61333	0.1803
8.61667	0.1783
8.62000	0.1783
8.62333	0.1793
8.62667	0.1788
8.63000	0.1763
8.63333	0.1751
8.63667	0.1764
8.64000	0.1773
8.64333	0.1772
8.64667	0.1778
8.65000	0.1786
8.65333	0.1787
8.65667	0.1773
8.66000	0.1748
8.66333	0.1720
8.66667	0.1735
8.67000	0.1749
8.67333	0.1748
8.67667	0.1774
8.68000	0.1770
8.68333	0.1763
8.68667	0.1757
8.69000	0.1771
8.69333	0.1770
8.69667	0.1771
8.70000	0.1776
8.70333	0.1770
8.70667	0.1761
8.71000	0.1780
8.71333	0.1781
8.71667	0.1749
8.72000	0.1749
8.72333	0.1748
8.72667	0.1774
8.73000	0.1769
8.73333	0.1756
8.73667	0.1754
8.74000	0.1763
8.74333	0.1752
8.74667	0.1737
8.75000	0.1732
8.75333	0.1732
8.75667	0.1737
8.76000	0.1745
8.76333	0.1775
8.76667	0.1783
8.77000	0.1775
8.77333	0.1774
8.77667	0.1753
8.78000	0.1758
8.78333	0.1762
8.78667	0.1773
8.79000	0.1766
8.79333	0.1739
8.79667	0.1721
8.80000	0.1720
8.80333	0.1723
8.80667	0.1734
8.81000	0.1743
8.81333	0.1767
8.81667	0.1760
8.82000	0.1723
8.82333	0.1729
8.82667	0.1738
8.83000	0.1742
8.83333	0.1731
8.83667	0.1744
8.84000	0.1747
8.84333	0.1745
8.84667	0.1755
8.85000	0.1754
8.85333	0.1738
8.85667	0.1734
8.86000	0.1734
8.86333	0.1720
8.86667	0.1728
8.87000	0.1734
8.87333	0.1724
8.87667	0.1720
8.88000	0.1715
8.88333	0.1717
8.88667	0.1714
8.89000	0.1719
8.89333	0.1724
8.89667	0.1720
8.90000	0.1733
8.90333	0.1715
8.90667	0.1724
8.91000	0.1720
8.91333	0.1713
8.91667	0.1706
8.92000	0.1688
8.92333	0.1684
8.92667	0.1687
8.93000	0.1685
8.93333	0.1702
8.93667	0.1722
8.94000	0.1704
8.94333	0.1689
8.94667	0.1699
8.95000	0.1733
8.95333	0.1732
8.95667	0.1709
8.96000	0.1701
8.96333	0.1695
8.96667	0.1699
8.97000	0.1700
8.97333	0.1700
8.97667	0.1700
8.98000	0.1702
8.98333	0.1704
8.98667	0.1692
8.99000	0.1685
8.99333	0.1690
8.99667	0.1697
9.00000	0.1701
9.00333	0.1704
9.00667	0.1694
9.01000	0.1688
9.01333	0.1680
9.01667	0.1696
9.02000	0.1701
9.02333	0.1688
9.02667	0.1684
9.03000	0.1671
9.03333	0.1674
9.03667	0.1668
9.04000	0.1688
9.04333	0.1718
9.04667	0.1699
9.05000	0.1671
9.05333	0.1647
9.05667	0.1654
9.06000	0.1651
9.06333	0.1652
9.06667	0.1666
9.07000	0.1688
9.07333	0.1688
9.07667	0.1680
9.08000	0.1677
9.08333	0.1680
9.08667	0.1664
9.09000	0.1654
9.09333	0.1655
9.09667	0.1666
9.10000	0.1661
9.10333	0.1643
9.10667	0.1646
9.11000	0.1646
9.11333	0.1656
9.11667	0.1657
9.12000	0.1645
9.12333	0.1631
9.12667	0.1640
9.13000	0.1656
9.13333	0.1679
9.13667	0.1673
9.14000	0.1661
9.14333	0.1667
9.14667	0.1667
9.15000	0.1664
9.15333	0.1666
9.15667	0.1657
9.16000	0.1647
9.16333	0.1651
9.16667	0.1651
9.17000	0.1638
9.17333	0.1635
9.17667	0.1619
9.18000	0.1607
9.18333	0.1609
9.18667	0.1615
9.19000	0.1626
9.19333	0.1624
9.19667	0.1618
9.20000	0.1632
9.20333	0.1641
9.20667	0.1637
9.21000	0.1642
9.21333	0.1635
9.21667	0.1632
9.22000	0.1623
9.22333	0.1633
9.22667	0.1623
9.23000	0.1611
9.23333	0.1618
9.23667	0.1627
9.24000	0.1639
9.24333	0.1627
9.24667	0.1619
9.25000	0.1627
9.25333	0.1629
9.25667	0.1627
9.26000	0.1624
9.26333	0.1629
9.26667	0.1630
9.27000	0.1625
9.27333	0.1611
9.27667	0.1595
9.28000	0.1587
9.28333	0.1602
9.28667	0.1600
9.29000	0.1606
9.29333	0.1603
9.29667	0.1594
9.30000	0.1613
9.30333	0.1603
9.30667	0.1601
9.31000	0.1595
9.31333	0.1586
9.31667	0.1600
9.32000	0.1620
9.32333	0.1628
9.32667	0.1642
9.33000	0.1632
9.33333	0.1609
9.33667	0.1595
9.34000	0.1600
9.34333	0.1607
9.34667	0.1597
9.35000	0.1611
9.35333	0.1622
9.35667	0.1611
9.36000	0.1609
9.36333	0.1597
9.36667	0.1596
9.37000	0.1591
9.37333	0.1596
9.37667	0.1595
9.38000	0.1588
9.38333	0.1608
9.38667	0.1620
9.39000	0.1622
9.39333	0.1603
9.39667	0.1588
9.40000	0.1590
9.40333	0.1593
9.40667	0.1595
9.41000	0.1588
9.41333	0.1582
9.41667	0.1574
9.42000	0.1569
9.42333	0.1587
9.42667	0.1592
9.43000	0.1575
9.43333	0.1578
9.43667	0.1584
9.44000	0.1574
9.44333	0.1563
9.44667	0.1557
9.45000	0.1555
9.45333	0.1559
9.45667	0.1563
9.46000	0.1572
9.46333	0.1572
9.46667	0.1556
9.47000	0.1557
9.47333	0.1575
9.47667	0.1582
9.48000	0.1582
9.48333	0.1579
9.48667	0.1584
9.49000	0.1574
9.49333	0.1563
9.49667	0.1561
9.50000	0.1550
9.50333	0.1538
9.50667	0.1561
9.51000	0.1574
9.51333	0.1548
9.51667	0.1523
9.52000	0.1526
9.52333	0.1557
9.52667	0.1575
9.53000	0.1580
9.53333	0.1561
9.53667	0.1540
9.54000	0.1532
9.54333	0.1534
9.54667	0.1550
9.55000	0.1562
9.55333	0.1560
9.55667	0.1545
9.56000	0.1529
9.56333	0.1526
9.56667	0.1532
9.57000	0.1531
9.57333	0.1510
9.57667	0.1506
9.58000	0.1513
9.58333	0.1526
9.58667	0.1537
9.59000	0.1540
9.59333	0.1532
9.59667	0.1522
9.60000	0.1516
9.60333	0.1507
9.60667	0.1513
9.61000	0.1527
9.61333	0.1525
9.61667	0.1521
9.62000	0.1516
9.62333	0.1507
9.62667	0.1501
9.63000	0.1513
9.63333	0.1535
9.63667	0.1539
9.64000	0.1536
9.64333	0.1527
9.64667	0.1509
9.65000	0.1493
9.65333	0.1499
9.65667	0.1508
9.66000	0.1501
9.66333	0.1500
9.66667	0.1508
9.67000	0.1514
9.67333	0.1511
9.67667	0.1510
9.68000	0.1501
9.68333	0.1501
9.68667	0.1513
9.69000	0.1514
9.69333	0.1506
9.69667	0.1510
9.70000	0.1505
9.70333	0.1493
9.70667	0.1499
9.71000	0.1504
9.71333	0.1496
9.71667	0.1496
9.72000	0.1508
9.72333	0.1505
9.72667	0.1492
9.73000	0.1490
9.73333	0.1490
9.73667	0.1485
9.74000	0.1490
9.74333	0.1498
9.74667	0.1477
9.75000	0.1468
9.75333	0.1501
9.75667	0.1502
9.76000	0.1479
9.76333	0.1495
9.76667	0.1511
9.77000	0.1501
9.77333	0.1492
9.77667	0.1471
9.78000	0.1463
9.78333	0.1459
9.78667	0.1461
9.79000	0.1459
9.79333	0.1451
9.79667	0.1455
9.80000	0.1464
9.80333	0.1479
9.80667	0.1493
9.81000	0.1470
9.81333	0.1449
9.81667	0.1455
9.82000	0.1464
9.82333	0.1489
9.82667	0.1487
9.83000	0.1467
9.83333	0.1456
9.83667	0.1456
9.84000	0.1454
9.84333	0.1451
9.84667	0.1465
9.85000	0.1452
9.85333	0.1454
9.85667	0.1452
9.86000	0.1437
9.86333	0.1441
9.86667	0.1459
9.87000	0.1453
9.87333	0.1437
9.87667	0.1436
9.88000	0.1424
9.88333	0.1433
9.88667	0.1458
9.89000	0.1468
9.89333	0.1470
9.89667	0.1475
9.90000	0.1469
9.90333	0.1450
9.90667	0.1447
9.91000	0.1450
9.91333	0.1428
9.91667	0.1412
9.92000	0.1416
9.92333	0.1408
9.92667	0.1412
9.93000	0.1413
9.93333	0.1416
9.93667	0.1408
9.94000	0.1418
9.94333	0.1428
9.94667	0.1435
9.95000	0.1451
9.95333	0.1431
9.95667	0.1424
9.96000	0.1412
9.96333	0.1413
9.96667	0.1413
9.97000	0.1405
9.97333	0.1395
9.97667	0.1402
9.98000	0.1421
9.98333	0.1412
9.98667	0.1401
9.99000	0.1412
9.99333	0.1413
9.99667	0.1428
10.00000	0.1421
10.00333	0.1405
10.00667	0.1383
10.01000	0.1389
10.01333	0.1387
10.01667	0.1387
10.02000	0.1396
10.02333	0.1381
10.02667	0.1395
10.03000	0.1408
10.03333	0.1398
10.03667	0.1385
10.04000	0.1399
10.04333	0.1415
10.04667	0.1395
10.05000	0.1369
10.05333	0.1367
10.05667	0.1401
10.06000	0.1393
10.06333	0.1388
10.06667	0.1371
10.07000	0.1367
10.07333	0.1351
10.07667	0.1335
10.08000	0.1349
10.08333	0.1365
10.08667	0.1401
10.09000	0.1405
10.09333	0.1375
10.09667	0.1387
10.10000	0.1379
10.10333	0.1364
10.10667	0.1380
10.11000	0.1376
10.11333	0.1345
10.11667	0.1351
10.12000	0.1353
10.12333	0.1350
10.12667	0.1350
10.13000	0.1357
10.13333	0.1360
10.13667	0.1367
10.14000	0.1370
10.14333	0.1370
10.14667	0.1377
10.15000	0.1366
10.15333	0.1367
10.15667	0.1356
10.16000	0.1378
10.16333	0.1375
10.16667	0.1370
10.17000	0.1350
10.17333	0.1348
10.17667	0.1357
10.18000	0.1367
10.18333	0.1383
10.18667	0.1369
10.19000	0.1347
10.19333	0.1334
10.19667	0.1337
10.20000	0.1354
10.20333	0.1352
10.20667	0.1357
10.21000	0.1381
10.21333	0.1382
10.21667	0.1366
10.22000	0.1360
10.22333	0.1310
10.22667	0.1306
10.23000	0.1317
10.23333	0.1305
10.23667	0.1337
10.24000	0.1349
10.24333	0.1343
10.24667	0.1326
10.25000	0.1335
10.25333	0.1347
10.25667	0.1357
10.26000	0.1345
10.26333	0.1311
10.26667	0.1293
10.27000	0.1298
10.27333	0.1322
10.27667	0.1329
10.28000	0.1308
10.28333	0.1286
10.28667	0.1280
10.29000	0.1295
10.29333	0.1285
10.29667	0.1295
10.30000	0.1284
10.30333	0.1311
10.30667	0.1289
10.31000	0.1304
10.31333	0.1287
10.31667	0.1273
10.32000	0.1301
10.32333	0.1302
10.32667	0.1339
10.33000	0.1349
10.33333	0.1319
10.33667	0.1342
10.34000	0.1326
10.34333	0.1352
10.34667	0.1320
10.35000	0.1318
10.35333	0.1312
10.35667	0.1326
10.36000	0.1338
10.36333	0.1332
10.36667	0.1338
10.37000	0.1332
10.37333	0.1306
10.37667	0.1300
10.38000	0.1300
10.38333	0.1308
10.38667	0.1318
10.39000	0.1320
10.39333	0.1320
10.39667	0.1312
10.40000	0.1318
10.40333	0.1303
10.40667	0.1292
10.41000	0.1340
10.41333	0.1325
10.41667	0.1354
10.42000	0.1335
10.42333	0.1305
10.42667	0.1283
10.43000	0.1280
10.43333	0.1288
10.43667	0.1315
10.44000	0.1294
10.44333	0.1290
10.44667	0.1299
10.45000	0.1283
10.45333	0.1289
10.45667	0.1307
10.46000	0.1327
10.46333	0.1321
10.46667	0.1320
10.47000	0.1294
10.47333	0.1308
10.47667	0.1310
10.48000	0.1301
10.48333	0.1300
10.48667	0.1300
10.49000	0.1291
10.49333	0.1281
10.49667	0.1289
10.50000	0.1299
10.50333	0.1291
10.50667	0.1299
10.51000	0.1291
10.51333	0.1290
10.51667	0.1272
10.52000	0.1279
10.52333	0.1307
10.52667	0.1301
10.53000	0.1291
10.53333	0.1327
10.53667	0.1293
10.54000	0.1290
10.54333	0.1318
10.54667	0.1320
10.55000	0.1311
10.55333	0.1319
10.55667	0.1320
10.56000	0.1329
10.56333	0.1349
10.56667	0.1331
10.57000	0.1330
10.57333	0.1358
10.57667	0.1351
10.58000	0.1331
10.58333	0.1368
10.58667	0.1351
10.59000	0.1331
10.59333	0.1330
10.59667	0.1340
10.60000	0.1321
10.60333	0.1310
10.60667	0.1348
10.61000	0.1350
10.61333	0.1350
10.61667	0.1360
10.62000	0.1350
10.62333	0.1369
10.62667	0.1351
10.63000	0.1370
10.63333	0.1341
10.63667	0.1320
10.64000	0.1369
10.64333	0.1370
10.64667	0.1370
10.65000	0.1360
10.65333	0.1360
10.65667	0.1410
10.66000	0.1390
10.66333	0.1370
10.66667	0.1390
10.67000	0.1430
10.67333	0.1445
10.67667	0.1443
10.68000	0.1436
10.68333	0.1413
10.68667	0.1396
10.69000	0.1393
10.69333	0.1417
10.69667	0.1423
10.70000	0.1432
10.70333	0.1446
10.70667	0.1479
10.71000	0.1489
10.71333	0.1490
10.71667	0.1469
10.72000	0.1470
10.72333	0.1470
10.72667	0.1475
10.73000	0.1472
10.73333	0.1471
10.73667	0.1486
10.74000	0.1514
10.74333	0.1527
10.74667	0.1518
10.75000	0.1540
10.75333	0.1561
10.75667	0.1571
10.76000	0.1575
10.76333	0.1578
10.76667	0.1563
10.77000	0.1572
10.77333	0.1581
10.77667	0.1591
10.78000	0.1591
10.78333	0.1632
10.78667	0.1647
10.79000	0.1659
10.79333	0.1675
10.79667	0.1704
10.80000	0.1723
10.80333	0.1711
10.80667	0.1726
10.81000	0.1733
10.81333	0.1737
10.81667	0.1754
10.82000	0.1773
10.82333	0.1803
10.82667	0.1823
10.83000	0.1816
10.83333	0.1813
10.83667	0.1828
10.84000	0.1882
10.84333	0.1886
10.84667	0.1931
10.85000	0.1941
10.85333	0.1946
10.85667	0.1975
10.86000	0.2015
10.86333	0.2023
10.86667	0.2032
10.87000	0.2047
10.87333	0.2070
10.87667	0.2097
10.88000	0.2120
10.88333	0.2137
10.88667	0.2171
10.89000	0.2214
10.89333	0.2244
10.89667	0.2269
10.90000	0.2302
10.90333	0.2334
10.90667	0.2359
10.91000	0.2414
10.91333	0.2445
10.91667	0.2481
10.92000	0.2524
10.92333	0.2555
10.92667	0.2574
10.93000	0.2605
10.93333	0.2647
10.93667	0.2698
10.94000	0.2743
10.94333	0.2769
10.94667	0.2792
10.95000	0.2836
10.95333	0.2894
10.95667	0.2947
10.96000	0.2999
10.96333	0.3028
10.96667	0.3101
10.97000	0.3135
10.97333	0.3205
10.97667	0.3253
10.98000	0.3313
10.98333	0.3379
10.98667	0.3436
10.99000	0.3484
10.99333	0.3549
10.99667	0.3617
11.00000	0.3671
11.00333	0.3750
11.00667	0.3829
11.01000	0.3881
11.01333	0.3949
11.01667	0.4024
11.02000	0.4113
11.02333	0.4180
11.02667	0.4271
11.03000	0.4340
11.03333	0.4426
11.03667	0.4492
11.04000	0.4566
11.04333	0.4666
11.04667	0.4761
11.05000	0.4858
11.05333	0.4930
11.05667	0.5033
11.06000	0.5108
11.06333	0.5226
11.06667	0.5344
11.07000	0.5457
11.07333	0.5541
11.07667	0.5634
11.08000	0.5732
11.08333	0.5859
11.08667	0.5960
11.09000	0.6078
11.09333	0.6214
11.09667	0.6330
11.10000	0.6454
11.10333	0.6587
11.10667	0.6707
11.11000	0.6828
11.11333	0.6966
11.11667	0.7111
11.12000	0.7247
11.12333	0.7374
11.12667	0.7514
11.13000	0.7632
11.13333	0.7769
11.13667	0.7912
11.14000	0.8038
11.14333	0.8189
11.14667	0.8330
11.15000	0.8505
11.15333	0.8676
11.15667	0.8847
11.16000	0.9017
11.16333	0.9160
11.16667	0.9335
11.17000	0.9497
11.17333	0.9676
11.17667	0.9861
11.18000	1.0049
11.18333	1.0219
11.18667	1.0374
11.19000	1.0550
11.19333	1.0740
11.19667	1.0918
11.20000	1.1095
11.20333	1.1313
11.20667	1.1520
11.21000	1.1710
11.21333	1.1877
11.21667	1.2049
11.22000	1.2261
11.22333	1.2476
11.22667	1.2666
11.23000	1.2870
11.23333	1.3093
11.23667	1.3286
11.24000	1.3494
11.24333	1.3700
11.24667	1.3916
11.25000	1.4157
11.25333	1.4390
11.25667	1.4597
11.26000	1.4797
11.26333	1.5021
11.26667	1.5253
11.27000	1.5468
11.27333	1.5697
11.27667	1.5908
11.28000	1.6108
11.28333	1.6320
11.28667	1.6545
11.29000	1.6779
11.29333	1.7009
11.29667	1.7223
11.30000	1.7460
11.30333	1.7697
11.30667	1.7920
11.31000	1.8163
11.31333	1.8376
11.31667	1.8619
11.32000	1.8860
11.32333	1.9099
11.32667	1.9329
11.33000	1.9577
11.33333	1.9819
11.33667	2.0036
11.34000	2.0261
11.34333	2.0485
11.34667	2.0725
11.35000	2.0964
11.35333	2.1192
11.35667	2.1426
11.36000	2.1648
11.36333	2.1874
11.36667	2.2098
11.37000	2.2338
11.37333	2.2582
11.37667	2.2791
11.38000	2.3035
11.38333	2.3259
11.38667	2.3490
11.39000	2.3744
11.39333	2.3982
11.39667	2.4206
11.40000	2.4415
11.40333	2.4657
11.40667	2.4911
11.41000	2.5128
11.41333	2.5359
11.41667	2.5592
11.42000	2.5825
11.42333	2.6033
11.42667	2.6243
11.43000	2.6460
11.43333	2.6680
11.43667	2.6905
11.44000	2.7122
11.44333	2.7348
11.44667	2.7571
11.45000	2.7796
11.45333	2.8014
11.45667	2.8238
11.46000	2.8453
11.46333	2.8660
11.46667	2.8877
11.47000	2.9099
11.47333	2.9301
11.47667	2.9498
11.48000	2.9710
11.48333	2.9923
11.48667	3.0114
11.49000	3.0320
11.49333	3.0513
11.49667	3.0728
11.50000	3.0937
11.50333	3.1170
11.50667	3.1381
11.51000	3.1575
11.51333	3.1748
11.51667	3.1963
11.52000	3.2174
11.52333	3.2379
11.52667	3.2586
11.53000	3.2788
11.53333	3.2976
11.53667	3.3164
11.54000	3.3379
11.54333	3.3561
11.54667	3.3743
11.55000	3.3937
11.55333	3.4132
11.55667	3.4315
11.56000	3.4517
11.56333	3.4716
11.56667	3.4875
11.57000	3.5049
11.57333	3.5241
11.57667	3.5430
11.58000	3.5616
11.58333	3.5814
11.58667	3.6023
11.59000	3.6183
11.59333	3.6381
11.59667	3.6575
11.60000	3.6742
11.60333	3.6918
11.60667	3.7117
11.61000	3.7298
11.61333	3.7481
11.61667	3.7680
11.62000	3.7896
11.62333	3.8092
11.62667	3.8242
11.63000	3.8402
11.63333	3.8577
11.63667	3.8757
11.64000	3.8921
11.64333	3.9102
11.64667	3.9310
11.65000	3.9494
11.65333	3.9647
11.65667	3.9817
11.66000	3.9990
11.66333	4.0168
11.66667	4.0354
11.67000	4.0538
11.67333	4.0729
11.67667	4.0901
11.68000	4.1076
11.68333	4.1245
11.68667	4.1428
11.69000	4.1612
11.69333	4.1806
11.69667	4.2001
11.70000	4.2178
11.70333	4.2340
11.70667	4.2488
11.71000	4.2670
11.71333	4.2874
11.71667	4.3040
11.72000	4.3189
11.72333	4.3368
11.72667	4.3558
11.73000	4.3737
11.73333	4.3895
11.73667	4.4071
11.74000	4.4259
11.74333	4.4432
11.74667	4.4589
11.75000	4.4768
11.75333	4.4948
11.75667	4.5139
11.76000	4.5338
11.76333	4.5517
11.76667	4.5691
11.77000	4.5868
11.77333	4.6043
11.77667	4.6224
11.78000	4.6415
11.78333	4.6594
11.78667	4.6756
11.79000	4.6918
11.79333	4.7096
11.79667	4.7305
11.80000	4.7482
11.80333	4.7655
11.80667	4.7826
11.81000	4.7991
11.81333	4.8148
11.81667	4.8339
11.82000	4.8533
11.82333	4.8702
11.82667	4.8888
11.83000	4.9075
11.83333	4.9236
11.83667	4.9413
11.84000	4.9605
11.84333	4.9787
11.84667	4.9948
11.85000	5.0130
11.85333	5.0340
11.85667	5.0537
11.86000	5.0724
11.86333	5.0868
11.86667	5.1022
11.87000	5.1193
11.87333	5.1366
11.87667	5.1542
11.88000	5.1719
11.88333	5.1904
11.88667	5.2074
11.89000	5.2256
11.89333	5.2421
11.89667	5.2597
11.90000	5.2777
11.90333	5.2958
11.90667	5.3128
11.91000	5.3312
11.91333	5.3465
11.91667	5.3629
11.92000	5.3794
11.92333	5.3966
11.92667	5.4135
11.93000	5.4313
11.93333	5.4475
11.93667	5.4638
11.94000	5.4796
11.94333	5.4955
11.94667	5.5104
11.95000	5.5275
11.95333	5.5445
11.95667	5.5601
11.96000	5.5776
11.96333	5.5952
11.96667	5.6116
11.97000	5.6265
11.97333	5.6438
11.97667	5.6616
11.98000	5.6789
11.98333	5.6948
11.98667	5.7117
11.99000	5.7294
11.99333	5.7434
11.99667	5.7566
12.00000	5.7716
12.00333	5.7873
12.00667	5.8021
12.01000	5.8190
12.01333	5.8356
12.01667	5.8515
12.02000	5.8685
12.02333	5.8851
12.02667	5.8997
12.03000	5.9152
12.03333	5.9301
12.03667	5.9453
12.04000	5.9618
12.04333	5.9770
12.04667	5.9917
12.05000	6.0063
12.05333	6.0203
12.05667	6.0343
12.06000	6.0498
12.06333	6.0655
12.06667	6.0804
12.07000	6.0951
12.07333	6.1094
12.07667	6.1222
12.08000	6.1375
12.08333	6.1523
12.08667	6.1668
12.09000	6.1792
12.09333	6.1923
12.09667	6.2061
12.10000	6.2203
12.10333	6.2339
12.10667	6.2466
12.11000	6.2615
12.11333	6.2752
12.11667	6.2898
12.12000	6.3047
12.12333	6.3184
12.12667	6.3318
12.13000	6.3442
12.13333	6.3563
12.13667	6.3684
12.14000	6.3817
12.14333	6.3960
12.14667	6.4076
12.15000	6.4203
12.15333	6.4342
12.15667	6.4467
12.16000	6.4584
12.16333	6.4713
12.16667	6.4830
12.17000	6.4953
12.17333	6.5094
12.17667	6.5209
12.18000	6.5330
12.18333	6.5450
12.18667	6.5552
12.19000	6.5657
12.19333	6.5787
12.19667	6.5920
12.20000	6.6036
12.20333	6.6148
12.20667	6.6250
12.21000	6.6347
12.21333	6.6461
12.21667	6.6575
12.22000	6.6681
12.22333	6.6802
12.22667	6.6919
12.23000	6.7022
12.23333	6.7139
12.23667	6.7227
12.24000	6.7335
12.24333	6.7450
12.24667	6.7562
12.25000	6.7660
12.25333	6.7754
12.25667	6.7858
12.26000	6.7955
12.26333	6.8068
12.26667	6.8171
12.27000	6.8266
12.27333	6.8349
12.27667	6.8459
12.28000	6.8581
12.28333	6.8667
12.28667	6.8754
12.29000	6.8838
12.29333	6.8928
12.29667	6.9014
12.30000	6.9100
12.30333	6.9198
12.30667	6.9305
12.31000	6.9404
12.31333	6.9499
12.31667	6.9557
12.32000	6.9617
12.32333	6.9705
12.32667	6.9795
12.33000	6.9875
12.33333	6.9953
12.33667	7.0048
12.34000	7.0137
12.34333	7.0232
12.34667	7.0327
12.35000	7.0390
12.35333	7.0451
12.35667	7.0518
12.36000	7.0596
12.36333	7.0679
12.36667	7.0767
12.37000	7.0843
12.37333	7.0906
12.37667	7.0982
12.38000	7.1062
12.38333	7.1134
12.38667	7.1197
12.39000	7.1250
12.39333	7.1322
12.39667	7.1407
12.40000	7.1468
12.40333	7.1528
12.40667	7.1600
12.41000	7.1671
12.41333	7.1729
12.41667	7.1766
12.42000	7.1823
12.42333	7.1904
12.42667	7.1956
12.43000	7.2022
12.43333	7.2092
12.43667	7.2150
12.44000	7.2214
12.44333	7.2270
12.44667	7.2326
12.45000	7.2381
12.45333	7.2432
12.45667	7.2479
12.46000	7.2532
12.46333	7.2591
12.46667	7.2631
12.47000	7.2682
12.47333	7.2742
12.47667	7.2773
12.48000	7.2819
12.48333	7.2881
12.48667	7.2909
12.49000	7.2943
12.49333	7.3010
12.49667	7.3055
12.50000	7.3084
12.50333	7.3122
12.50667	7.3178
12.51000	7.3233
12.51333	7.3259
12.51667	7.3285
12.52000	7.3318
12.52333	7.3353
12.52667	7.3388
12.53000	7.3428
12.53333	7.3463
12.53667	7.3490
12.54000	7.3528
12.54333	7.3576
12.54667	7.3613
12.55000	7.3645
12.55333	7.3666
12.55667	7.3687
12.56000	7.3711
12.56333	7.3732
12.56667	7.3756
12.57000	7.3803
12.57333	7.3824
12.57667	7.3826
12.58000	7.3847
12.58333	7.3880
12.58667	7.3905
12.59000	7.3909
12.59333	7.3919
12.59667	7.3937
12.60000	7.3953
12.60333	7.3973
12.60667	7.4001
12.61000	7.4008
12.61333	7.4006
12.61667	7.4014
12.62000	7.4019
12.62333	7.4034
12.62667	7.4062
12.63000	7.4091
12.63333	7.4088
12.63667	7.4097
12.64000	7.4116
12.64333	7.4110
12.64667	7.4111
12.65000	7.4128
12.65333	7.4138
12.65667	7.4130
12.66000	7.4131
12.66333	7.4134
12.66667	7.4135
12.67000	7.4149
12.67333	7.4158
12.67667	7.4150
12.68000	7.4146
12.68333	7.4145
12.68667	7.4146
12.69000	7.4144
12.69333	7.4146
12.69667	7.4119
12.70000	7.4104
12.70333	7.4099
12.70667	7.4091
12.71000	7.4080
12.71333	7.4051
12.71667	7.4028
12.72000	7.4026
12.72333	7.4024
12.72667	7.4015
12.73000	7.3995
12.73333	7.3977
12.73667	7.3955
12.74000	7.3921
12.74333	7.3887
12.74667	7.3894
12.75000	7.3913
12.75333	7.3914
12.75667	7.3878
12.76000	7.3832
12.76333	7.3791
12.76667	7.3762
12.77000	7.3746
12.77333	7.3719
12.77667	7.3686
12.78000	7.3678
12.78333	7.3669
12.78667	7.3639
12.79000	7.3595
12.79333	7.3545
12.79667	7.3512
12.80000	7.3485
12.80333	7.3466
12.80667	7.3466
12.81000	7.3447
12.81333	7.3404
12.81667	7.3360
12.82000	7.3308
12.82333	7.3272
12.82667	7.3239
12.83000	7.3199
12.83333	7.3125
12.83667	7.3074
12.84000	7.3039
12.84333	7.2987
12.84667	7.2928
12.85000	7.2892
12.85333	7.2876
12.85667	7.2835
12.86000	7.2771
12.86333	7.2720
12.86667	7.2679
12.87000	7.2603
12.87333	7.2559
12.87667	7.2539
12.88000	7.2489
12.88333	7.2421
12.88667	7.2363
12.89000	7.2306
12.89333	7.2234
12.89667	7.2167
12.90000	7.2131
12.90333	7.2084
12.90667	7.2019
12.91000	7.1962
12.91333	7.1905
12.91667	7.1845
12.92000	7.1804
12.92333	7.1754
12.92667	7.1670
12.93000	7.1597
12.93333	7.1528
12.93667	7.1452
12.94000	7.1404
12.94333	7.1315
12.94667	7.1230
12.95000	7.1165
12.95333	7.1104
12.95667	7.1050
12.96000	7.0980
12.96333	7.0888
12.96667	7.0802
12.97000	7.0754
12.97333	7.0702
12.97667	7.0643
12.98000	7.0570
12.98333	7.0477
12.98667	7.0411
12.99000	7.0332
12.99333	7.0230
12.99667	7.0141
13.00000	7.0059
13.00333	6.9972
13.00667	6.9896
13.01000	6.9845
13.01333	6.9744
13.01667	6.9670
13.02000	6.9556
13.02333	6.9466
13.02667	6.9381
13.03000	6.9305
13.03333	6.9206
13.03667	6.9118
13.04000	6.9010
13.04333	6.8911
13.04667	6.8827
13.05000	6.8712
13.05333	6.8625
13.05667	6.8546
13.06000	6.8473
13.06333	6.8353
13.06667	6.8271
13.07000	6.8195
13.07333	6.8101
13.07667	6.7980
13.08000	6.7879
13.08333	6.7809
13.08667	6.7734
13.09000	6.7632
13.09333	6.7523
13.09667	6.7406
13.10000	6.7293
13.10333	6.7204
13.10667	6.7094
13.11000	6.6989
13.11333	6.6889
13.11667	6.6803
13.12000	6.6708
13.12333	6.6593
13.12667	6.6481
13.13000	6.6400
13.13333	6.6299
13.13667	6.6197
13.14000	6.6097
13.14333	6.5997
13.14667	6.5881
13.15000	6.5754
13.15333	6.5609
13.15667	6.5512
13.16000	6.5430
13.16333	6.5319
13.16667	6.5208
13.17000	6.5105
13.17333	6.5012
13.17667	6.4906
13.18000	6.4789
13.18333	6.4661
13.18667	6.4570
13.19000	6.4449
13.19333	6.4328
13.19667	6.4223
13.20000	6.4107
13.20333	6.3994
13.20667	6.3868
13.21000	6.3770
13.21333	6.3656
13.21667	6.3543
13.22000	6.3417
13.22333	6.3295
13.22667	6.3191
13.23000	6.3083
13.23333	6.2940
13.23667	6.2830
13.24000	6.2730
13.24333	6.2630
13.24667	6.2521
13.25000	6.2411
13.25333	6.2293
13.25667	6.2139
13.26000	6.2062
13.26333	6.1951
13.26667	6.1815
13.27000	6.1683
13.27333	6.1578
13.27667	6.1460
13.28000	6.1332
13.28333	6.1202
13.28667	6.1088
13.29000	6.0961
13.29333	6.0865
13.29667	6.0757
13.30000	6.0647
13.30333	6.0528
13.30667	6.0417
13.31000	6.0298
13.31333	6.0195
13.31667	6.0043
13.32000	5.9917
13.32333	5.9805
13.32667	5.9678
13.33000	5.9565
13.33333	5.9446
13.33667	5.9343
13.34000	5.9208
13.34333	5.9076
13.34667	5.8972
13.35000	5.8854
13.35333	5.8726
13.35667	5.8595
13.36000	5.8446
13.36333	5.8341
13.36667	5.8232
13.37000	5.8131
13.37333	5.8013
13.37667	5.7856
13.38000	5.7750
13.38333	5.7650
13.38667	5.7531
13.39000	5.7393
13.39333	5.7262
13.39667	5.7159
13.40000	5.7049
13.40333	5.6939
13.40667	5.6820
13.41000	5.6681
13.41333	5.6541
13.41667	5.6447
13.42000	5.6338
13.42333	5.6218
13.42667	5.6061
13.43000	5.5966
13.43333	5.5857
13.43667	5.5737
13.44000	5.5598
13.44333	5.5505
13.44667	5.5386
13.45000	5.5266
13.45333	5.5127
13.45667	5.5015
13.46000	5.4914
13.46333	5.4766
13.46667	5.4645
13.47000	5.4525
13.47333	5.4462
13.47667	5.4285
13.48000	5.4144
13.48333	5.4062
13.48667	5.3953
13.49000	5.3823
13.49333	5.3702
13.49667	5.3573
13.50000	5.3491
13.50333	5.3351
13.50667	5.3192
13.51000	5.3141
13.51333	5.3061
13.51667	5.2901
13.52000	5.2770
13.52333	5.2690
13.52667	5.2540
13.53000	5.2480
13.53333	5.2399
13.53667	5.2294
13.54000	5.2182
13.54333	5.2090
13.54667	5.1979
13.55000	5.1848
13.55333	5.1728
13.55667	5.1617
13.56000	5.1512
13.56333	5.1389
13.56667	5.1278
13.57000	5.1177
13.57333	5.1061
13.57667	5.0959
13.58000	5.0847
13.58333	5.0721
13.58667	5.0587
13.59000	5.0450
13.59333	5.0337
13.59667	5.0216
13.60000	5.0120
13.60333	5.0007
13.60667	4.9905
13.61000	4.9789
13.61333	4.9681
13.61667	4.9556
13.62000	4.9439
13.62333	4.9331
13.62667	4.9222
13.63000	4.9127
13.63333	4.9019
13.63667	4.8884
13.64000	4.8747
13.64333	4.8649
13.64667	4.8550
13.65000	4.8450
13.65333	4.8340
13.65667	4.8209
13.66000	4.8078
13.66333	4.7969
13.66667	4.7864
13.67000	4.7757
13.67333	4.7631
13.67667	4.7499
13.68000	4.7394
13.68333	4.7307
13.68667	4.7207
13.69000	4.7102
13.69333	4.6973
13.69667	4.6849
13.70000	4.6759
13.70333	4.6647
13.70667	4.6542
13.71000	4.6439
13.71333	4.6311
13.71667	4.6208
13.72000	4.6102
13.72333	4.6004
13.72667	4.5905
13.73000	4.5778
13.73333	4.5660
13.73667	4.5552
13.74000	4.5453
13.74333	4.5327
13.74667	4.5225
13.75000	4.5114
13.75333	4.5025
13.75667	4.4908
13.76000	4.4822
13.76333	4.4722
13.76667	4.4622
13.77000	4.4496
13.77333	4.4394
13.77667	4.4298
13.78000	4.4195
13.78333	4.4099
13.78667	4.3983
13.79000	4.3877
13.79333	4.3784
13.79667	4.3682
13.80000	4.3576
13.80333	4.3478
13.80667	4.3368
13.81000	4.3274
13.81333	4.3150
13.81667	4.3055
13.82000	4.2957
13.82333	4.2847
13.82667	4.2737
13.83000	4.2648
13.83333	4.2537
13.83667	4.2410
13.84000	4.2309
13.84333	4.2214
13.84667	4.2143
13.85000	4.2045
13.85333	4.1924
13.85667	4.1826
13.86000	4.1732
13.86333	4.1645
13.86667	4.1535
13.87000	4.1463
13.87333	4.1358
13.87667	4.1246
13.88000	4.1156
13.88333	4.1039
13.88667	4.0942
13.89000	4.0849
13.89333	4.0752
13.89667	4.0659
13.90000	4.0561
13.90333	4.0457
13.90667	4.0361
13.91000	4.0274
13.91333	4.0190
13.91667	4.0103
13.92000	4.0002
13.92333	3.9903
13.92667	3.9824
13.93000	3.9711
13.93333	3.9612
13.93667	3.9539
13.94000	3.9434
13.94333	3.9326
13.94667	3.9217
13.95000	3.9108
13.95333	3.9027
13.95667	3.8945
13.96000	3.8842
13.96333	3.8742
13.96667	3.8680
13.97000	3.8579
13.97333	3.8479
13.97667	3.8397
13.98000	3.8321
13.98333	3.8242
13.98667	3.8146
13.99000	3.8063
13.99333	3.7948
13.99667	3.7849
14.00000	3.7783
14.00333	3.7701
14.00667	3.7587
14.01000	3.7499
14.01333	3.7421
14.01667	3.7328
14.02000	3.7221
14.02333	3.7125
14.02667	3.7054
14.03000	3.6961
14.03333	3.6887
14.03667	3.6803
14.04000	3.6716
14.04333	3.6627
14.04667	3.6555
14.05000	3.6471
14.05333	3.6379
14.05667	3.6288
14.06000	3.6203
14.06333	3.6115
14.06667	3.6038
14.07000	3.5957
14.07333	3.5855
14.07667	3.5777
14.08000	3.5685
14.08333	3.5591
14.08667	3.5521
14.09000	3.5451
14.09333	3.5375
14.09667	3.5296
14.10000	3.5205
14.10333	3.5114
14.10667	3.5024
14.11000	3.4946
14.11333	3.4867
14.11667	3.4793
14.12000	3.4715
14.12333	3.4629
14.12667	3.4537
14.13000	3.4467
14.13333	3.4374
14.13667	3.4289
14.14000	3.4207
14.14333	3.4133
14.14667	3.4072
14.15000	3.3988
14.15333	3.3919
14.15667	3.3853
14.16000	3.3754
14.16333	3.3657
14.16667	3.3581
14.17000	3.3496
14.17333	3.3410
14.17667	3.3345
14.18000	3.3283
14.18333	3.3214
14.18667	3.3127
14.19000	3.3046
14.19333	3.2983
14.19667	3.2914
14.20000	3.2832
14.20333	3.2739
14.20667	3.2648
14.21000	3.2564
14.21333	3.2484
14.21667	3.2416
14.22000	3.2352
14.22333	3.2289
14.22667	3.2202
14.23000	3.2105
14.23333	3.2048
14.23667	3.1989
14.24000	3.1921
14.24333	3.1841
14.24667	3.1770
14.25000	3.1673
14.25333	3.1611
14.25667	3.1548
14.26000	3.1472
14.26333	3.1423
14.26667	3.1316
14.27000	3.1238
14.27333	3.1159
14.27667	3.1093
14.28000	3.1036
14.28333	3.0968
14.28667	3.0882
14.29000	3.0809
14.29333	3.0716
14.29667	3.0640
14.30000	3.0590
14.30333	3.0520
14.30667	3.0444
14.31000	3.0367
14.31333	3.0297
14.31667	3.0208
14.32000	3.0158
14.32333	3.0092
14.32667	3.0040
14.33000	2.9976
14.33333	2.9901
14.33667	2.9827
14.34000	2.9778
14.34333	2.9711
14.34667	2.9652
14.35000	2.9580
14.35333	2.9508
14.35667	2.9425
14.36000	2.9341
14.36333	2.9250
14.36667	2.9211
14.37000	2.9145
14.37333	2.9071
14.37667	2.9005
14.38000	2.8931
14.38333	2.8867
14.38667	2.8804
14.39000	2.8741
14.39333	2.8700
14.39667	2.8635
14.40000	2.8566
14.40333	2.8497
14.40667	2.8430
14.41000	2.8386
14.41333	2.8335
14.41667	2.8266
14.42000	2.8197
14.42333	2.8132
14.42667	2.8057
14.43000	2.7979
14.43333	2.7910
14.43667	2.7857
14.44000	2.7793
14.44333	2.7731
14.44667	2.7664
14.45000	2.7603
14.45333	2.7548
14.45667	2.7491
14.46000	2.7434
14.46333	2.7360
14.46667	2.7307
14.47000	2.7247
14.47333	2.7174
14.47667	2.7108
14.48000	2.7059
14.48333	2.6988
14.48667	2.6937
14.49000	2.6885
14.49333	2.6827
14.49667	2.6758
14.50000	2.6681
14.50333	2.6626
14.50667	2.6565
14.51000	2.6498
14.51333	2.6454
14.51667	2.6409
14.52000	2.6345
14.52333	2.6269
14.52667	2.6215
14.53000	2.6153
14.53333	2.6086
14.53667	2.6064
14.54000	2.5999
14.54333	2.5941
14.54667	2.5888
14.55000	2.5812
14.55333	2.5740
14.55667	2.5676
14.56000	2.5638
14.56333	2.5593
14.56667	2.5549
14.57000	2.5495
14.57333	2.5437
14.57667	2.5361
14.58000	2.5322
14.58333	2.5286
14.58667	2.5234
14.59000	2.5155
14.59333	2.5098
14.59667	2.5047
14.60000	2.4980
14.60333	2.4925
14.60667	2.4864
14.61000	2.4777
14.61333	2.4711
14.61667	2.4666
14.62000	2.4634
14.62333	2.4591
14.62667	2.4545
14.63000	2.4487
14.63333	2.4438
14.63667	2.4380
14.64000	2.4318
14.64333	2.4269
14.64667	2.4208
14.65000	2.4140
14.65333	2.4095
14.65667	2.4068
14.66000	2.4032
14.66333	2.3960
14.66667	2.3905
14.67000	2.3857
14.67333	2.3803
14.67667	2.3758
14.68000	2.3706
14.68333	2.3644
14.68667	2.3591
14.69000	2.3546
14.69333	2.3514
14.69667	2.3454
14.70000	2.3400
14.70333	2.3342
14.70667	2.3272
14.71000	2.3233
14.71333	2.3205
14.71667	2.3146
14.72000	2.3089
14.72333	2.3045
14.72667	2.2976
14.73000	2.2924
14.73333	2.2882
14.73667	2.2831
14.74000	2.2785
14.74333	2.2741
14.74667	2.2691
14.75000	2.2615
14.75333	2.2572
14.75667	2.2526
14.76000	2.2488
14.76333	2.2425
14.76667	2.2394
14.77000	2.2340
14.77333	2.2291
14.77667	2.2240
14.78000	2.2220
14.78333	2.2181
14.78667	2.2117
14.79000	2.2069
14.79333	2.2015
14.79667	2.1978
14.80000	2.1924
14.80333	2.1876
14.80667	2.1847
14.81000	2.1803
14.81333	2.1760
14.81667	2.1726
14.82000	2.1679
14.82333	2.1638
14.82667	2.1579
14.83000	2.1515
14.83333	2.1467
14.83667	2.1416
14.84000	2.1384
14.84333	2.1332
14.84667	2.1278
14.85000	2.1238
14.85333	2.1209
14.85667	2.1172
14.86000	2.1123
14.86333	2.1058
14.86667	2.1004
14.87000	2.0947
14.87333	2.0895
14.87667	2.0882
14.88000	2.0847
14.88333	2.0799
14.88667	2.0744
14.89000	2.0695
14.89333	2.0657
14.89667	2.0626
14.90000	2.0587
14.90333	2.0555
14.90667	2.0515
14.91000	2.0479
14.91333	2.0445
14.91667	2.0405
14.92000	2.0332
14.92333	2.0271
14.92667	2.0228
14.93000	2.0197
14.93333	2.0189
14.93667	2.0153
14.94000	2.0106
14.94333	2.0064
14.94667	2.0014
14.95000	1.9973
14.95333	1.9938
14.95667	1.9900
14.96000	1.9860
14.96333	1.9814
14.96667	1.9758
14.97000	1.9699
14.97333	1.9652
14.97667	1.9630
14.98000	1.9597
14.98333	1.9546
14.98667	1.9514
14.99000	1.9475
14.99333	1.9412
14.99667	1.9373
15.00000	1.9352
15.00333	1.9322
15.00667	1.9297
15.01000	1.9255
15.01333	1.9206
15.01667	1.9177
15.02000	1.9136
15.02333	1.9100
15.02667	1.9048
15.03000	1.9003
15.03333	1.8964
15.03667	1.8922
15.04000	1.8889
15.04333	1.8858
15.04667	1.8822
15.05000	1.8784
15.05333	1.8757
15.05667	1.8731
15.06000	1.8694
15.06333	1.8647
15.06667	1.8606
15.07000	1.8554
15.07333	1.8513
15.07667	1.8474
15.08000	1.8441
15.08333	1.8412
15.08667	1.8399
15.09000	1.8358
15.09333	1.8306
15.09667	1.8261
15.10000	1.8225
15.10333	1.8192
15.10667	1.8156
15.11000	1.8117
15.11333	1.8095
15.11667	1.8060
15.12000	1.8013
15.12333	1.7970
15.12667	1.7943
15.13000	1.7914
15.13333	1.7870
15.13667	1.7827
15.14000	1.7784
15.14333	1.7762
15.14667	1.7743
15.15000	1.7702
15.15333	1.7648
15.15667	1.7612
15.16000	1.7571
15.16333	1.7524
15.16667	1.7505
15.17000	1.7488
15.17333	1.7446
15.17667	1.7399
15.18000	1.7366
15.18333	1.7339
15.18667	1.7310
15.19000	1.7266
15.19333	1.7216
15.19667	1.7181
15.20000	1.7161
15.20333	1.7145
15.20667	1.7119
15.21000	1.7082
15.21333	1.7050
15.21667	1.7023
15.22000	1.6994
15.22333	1.6961
15.22667	1.6929
15.23000	1.6907
15.23333	1.6865
15.23667	1.6814
15.24000	1.6777
15.24333	1.6736
15.24667	1.6704
15.25000	1.6670
15.25333	1.6639
15.25667	1.6609
15.26000	1.6574
15.26333	1.6544
15.26667	1.6517
15.27000	1.6485
15.27333	1.6442
15.27667	1.6409
15.28000	1.6394
15.28333	1.6379
15.28667	1.6352
15.29000	1.6315
15.29333	1.6271
15.29667	1.6238
15.30000	1.6227
15.30333	1.6210
15.30667	1.6174
15.31000	1.6151
15.31333	1.6130
15.31667	1.6114
15.32000	1.6083
15.32333	1.6028
15.32667	1.5981
15.33000	1.5952
15.33333	1.5922
15.33667	1.5892
15.34000	1.5870
15.34333	1.5850
15.34667	1.5821
15.35000	1.5792
15.35333	1.5753
15.35667	1.5718
15.36000	1.5686
15.36333	1.5656
15.36667	1.5639
15.37000	1.5607
15.37333	1.5572
15.37667	1.5550
15.38000	1.5529
15.38333	1.5509
15.38667	1.5480
15.39000	1.5434
15.39333	1.5397
15.39667	1.5379
15.40000	1.5354
15.40333	1.5325
15.40667	1.5304
15.41000	1.5271
15.41333	1.5232
15.41667	1.5209
15.42000	1.5179
15.42333	1.5142
15.42667	1.5102
15.43000	1.5062
15.43333	1.5048
15.43667	1.5041
15.44000	1.5014
15.44333	1.4998
15.44667	1.4968
15.45000	1.4936
15.45333	1.4922
15.45667	1.4884
15.46000	1.4842
15.46333	1.4828
15.46667	1.4807
15.47000	1.4784
15.47333	1.4785
15.47667	1.4775
15.48000	1.4730
15.48333	1.4677
15.48667	1.4654
15.49000	1.4617
15.49333	1.4591
15.49667	1.4571
15.50000	1.4529
15.50333	1.4519
15.50667	1.4523
15.51000	1.4492
15.51333	1.4455
15.51667	1.4413
15.52000	1.4380
15.52333	1.4362
15.52667	1.4327
15.53000	1.4289
15.53333	1.4268
15.53667	1.4266
15.54000	1.4255
15.54333	1.4217
15.54667	1.4194
15.55000	1.4175
15.55333	1.4132
15.55667	1.4095
15.56000	1.4077
15.56333	1.4066
15.56667	1.4046
15.57000	1.4012
15.57333	1.3993
15.57667	1.3970
15.58000	1.3927
15.58333	1.3904
15.58667	1.3874
15.59000	1.3848
15.59333	1.3852
15.59667	1.3854
15.60000	1.3819
15.60333	1.3773
15.60667	1.3769
15.61000	1.3736
15.61333	1.3689
15.61667	1.3651
15.62000	1.3638
15.62333	1.3613
15.62667	1.3588
15.63000	1.3586
15.63333	1.3579
15.63667	1.3571
15.64000	1.3548
15.64333	1.3505
15.64667	1.3478
15.65000	1.3443
15.65333	1.3406
15.65667	1.3409
15.66000	1.3385
15.66333	1.3329
15.66667	1.3315
15.67000	1.3319
15.67333	1.3286
15.67667	1.3263
15.68000	1.3260
15.68333	1.3232
15.68667	1.3201
15.69000	1.3180
15.69333	1.3160
15.69667	1.3145
15.70000	1.3129
15.70333	1.3115
15.70667	1.3087
15.71000	1.3054
15.71333	1.3036
15.71667	1.3001
15.72000	1.2988
15.72333	1.2978
15.72667	1.2971
15.73000	1.2952
15.73333	1.2917
15.73667	1.2896
15.74000	1.2867
15.74333	1.2834
15.74667	1.2797
15.75000	1.2770
15.75333	1.2755
15.75667	1.2744
15.76000	1.2704
15.76333	1.2689
15.76667	1.2696
15.77000	1.2693
15.77333	1.2659
15.77667	1.2661
15.78000	1.2644
15.78333	1.2619
15.78667	1.2586
15.79000	1.2553
15.79333	1.2510
15.79667	1.2492
15.80000	1.2471
15.80333	1.2442
15.80667	1.2425
15.81000	1.2420
15.81333	1.2407
15.81667	1.2362
15.82000	1.2368
15.82333	1.2379
15.82667	1.2347
15.83000	1.2332
15.83333	1.2324
15.83667	1.2294
15.84000	1.2255
15.84333	1.2241
15.84667	1.2247
15.85000	1.2223
15.85333	1.2198
15.85667	1.2171
15.86000	1.2141
15.86333	1.2104
15.86667	1.2098
15.87000	1.2086
15.87333	1.2054
15.87667	1.2021
15.88000	1.2004
15.88333	1.1994
15.88667	1.1990
15.89000	1.1962
15.89333	1.1944
15.89667	1.1920
15.90000	1.1911
15.90333	1.1889
15.90667	1.1874
15.91000	1.1863
15.91333	1.1846
15.91667	1.1812
15.92000	1.1794
15.92333	1.1776
15.92667	1.1742
15.93000	1.1745
15.93333	1.1735
15.93667	1.1716
15.94000	1.1696
15.94333	1.1698
15.94667	1.1642
15.95000	1.1614
15.95333	1.1639
15.95667	1.1620
15.96000	1.1581
15.96333	1.1564
15.96667	1.1560
15.97000	1.1531
15.97333	1.1513
15.97667	1.1488
15.98000	1.1466
15.98333	1.1460
15.98667	1.1438
15.99000	1.1438
15.99333	1.1432
15.99667	1.1423
16.00000	1.1420
16.00333	1.1390
16.00667	1.1335
16.01000	1.1298
16.01333	1.1275
16.01667	1.1263
16.02000	1.1275
16.02333	1.1264
16.02667	1.1268
16.03000	1.1216
16.03333	1.1178
16.03667	1.1186
16.04000	1.1167
16.04333	1.1184
16.04667	1.1166
16.05000	1.1129
16.05333	1.1113
16.05667	1.1079
16.06000	1.1055
16.06333	1.1026
16.06667	1.1012
16.07000	1.0994
16.07333	1.0990
16.07667	1.0982
16.08000	1.0948
16.08333	1.0940
16.08667	1.0940
16.09000	1.0964
16.09333	1.0937
16.09667	1.0906
16.10000	1.0868
16.10333	1.0852
16.10667	1.0842
16.11000	1.0848
16.11333	1.0850
16.11667	1.0809
16.12000	1.0784
16.12333	1.0772
16.12667	1.0770
16.13000	1.0737
16.13333	1.0697
16.13667	1.0674
16.14000	1.0653
16.14333	1.0650
16.14667	1.0642
16.15000	1.0606
16.15333	1.0617
16.15667	1.0611
16.16000	1.0585
16.16333	1.0597
16.16667	1.0549
16.17000	1.0523
16.17333	1.0529
16.17667	1.0504
16.18000	1.0474
16.18333	1.0487
16.18667	1.0473
16.19000	1.0488
16.19333	1.0464
16.19667	1.0443
16.20000	1.0440
16.20333	1.0422
16.20667	1.0420
16.21000	1.0367
16.21333	1.0351
16.21667	1.0359
16.22000	1.0342
16.22333	1.0331
16.22667	1.0303
16.23000	1.0264
16.23333	1.0269
16.23667	1.0243
16.24000	1.0240
16.24333	1.0222
16.24667	1.0193
16.25000	1.0190
16.25333	1.0172
16.25667	1.0152
16.26000	1.0104
16.26333	1.0146
16.26667	1.0159
16.27000	1.0114
16.27333	1.0101
16.27667	1.0109
16.28000	1.0035
16.28333	0.9993
16.28667	1.0056
16.29000	1.0088
16.29333	1.0052
16.29667	1.0003
16.30000	0.9981
16.30333	0.9999
16.30667	0.9990
16.31000	0.9980
16.31333	0.9970
16.31667	0.9922
16.32000	0.9901
16.32333	0.9881
16.32667	0.9870
16.33000	0.9841
16.33333	0.9830
16.33667	0.9801
16.34000	0.9761
16.34333	0.9780
16.34667	0.9760
16.35000	0.9789
16.35333	0.9790
16.35667	0.9780
16.36000	0.9750
16.36333	0.9770
16.36667	0.9770
16.37000	0.9760
16.37333	0.9740
16.37667	0.9680
16.38000	0.9700
16.38333	0.9680
16.38667	0.9670
16.39000	0.9645
16.39333	0.9642
16.39667	0.9646
16.40000	0.9643
16.40333	0.9621
16.40667	0.9616
16.41000	0.9603
16.41333	0.9561
16.41667	0.9540
16.42000	0.9525
16.42333	0.9522
16.42667	0.9501
16.43000	0.9485
16.43333	0.9467
16.43667	0.9464
16.44000	0.9457
16.44333	0.9443
16.44667	0.9441
16.45000	0.9425
16.45333	0.9428
16.45667	0.9424
16.46000	0.9412
16.46333	0.9406
16.46667	0.9387
16.47000	0.9378
16.47333	0.9374
16.47667	0.9367
16.48000	0.9353
16.48333	0.9341
16.48667	0.9314
16.49000	0.9302
16.49333	0.9285
16.49667	0.9272
16.50000	0.9281
16.50333	0.9260
16.50667	0.9249
16.51000	0.9239
16.51333	0.9229
16.51667	0.9219
16.52000	0.9188
16.52333	0.9189
16.52667	0.9195
16.53000	0.9192
16.53333	0.9186
16.53667	0.9151
16.54000	0.9124
16.54333	0.9111
16.54667	0.9095
16.55000	0.9092
16.55333	0.9080
16.55667	0.9085
16.56000	0.9077
16.56333	0.9052
16.56667	0.9035
16.57000	0.9011
16.57333	0.9010
16.57667	0.9005
16.58000	0.9007
16.58333	0.8993
16.58667	0.8997
16.59000	0.8982
16.59333	0.8965
16.59667	0.8962
16.60000	0.8940
16.60333	0.8945
16.60667	0.8953
16.61000	0.8940
16.61333	0.8924
16.61667	0.8900
16.62000	0.8900
16.62333	0.8883
16.62667	0.8860
16.63000	0.8833
16.63333	0.8831
16.63667	0.8825
16.64000	0.8827
16.64333	0.8802
16.64667	0.8801
16.65000	0.8795
16.65333	0.8787
16.65667	0.8783
16.66000	0.8770
16.66333	0.8747
16.66667	0.8710
16.67000	0.8694
16.67333	0.8697
16.67667	0.8688
16.68000	0.8678
16.68333	0.8668
16.68667	0.8653
16.69000	0.8662
16.69333	0.8650
16.69667	0.8639
16.70000	0.8639
16.70333	0.8640
16.70667	0.8629
16.71000	0.8624
16.71333	0.8616
16.71667	0.8607
16.72000	0.8597
16.72333	0.8588
16.72667	0.8606
16.73000	0.8597
16.73333	0.8598
16.73667	0.8570
16.74000	0.8537
16.74333	0.8527
16.74667	0.8506
16.75000	0.8514
16.75333	0.8506
16.75667	0.8502
16.76000	0.8489
16.76333	0.8467
16.76667	0.8456
16.77000	0.8425
16.77333	0.8422
16.77667	0.8415
16.78000	0.8424
16.78333	0.8444
16.78667	0.8430
16.79000	0.8406
16.79333	0.8385
16.79667	0.8348
16.80000	0.8332
16.80333	0.8342
16.80667	0.8341
16.81000	0.8334
16.81333	0.8315
16.81667	0.8312
16.82000	0.8317
16.82333	0.8324
16.82667	0.8309
16.83000	0.8285
16.83333	0.8242
16.83667	0.8236
16.84000	0.8250
16.84333	0.8250
16.84667	0.8244
16.85000	0.8235
16.85333	0.8215
16.85667	0.8218
16.86000	0.8211
16.86333	0.8170
16.86667	0.8171
16.87000	0.8180
16.87333	0.8151
16.87667	0.8139
16.88000	0.8151
16.88333	0.8145
16.88667	0.8147
16.89000	0.8124
16.89333	0.8099
16.89667	0.8100
16.90000	0.8107
16.90333	0.8131
16.90667	0.8118
16.91000	0.8100
16.91333	0.8077
16.91667	0.8077
16.92000	0.8050
16.92333	0.8050
16.92667	0.8051
16.93000	0.8065
16.93333	0.8027
16.93667	0.8022
16.94000	0.8008
16.94333	0.7985
16.94667	0.7970
16.95000	0.7964
16.95333	0.7968
16.95667	0.7970
16.96000	0.7979
16.96333	0.7951
16.96667	0.7950
16.97000	0.7943
16.97333	0.7929
16.97667	0.7918
16.98000	0.7919
16.98333	0.7919
16.98667	0.7913
16.99000	0.7899
16.99333	0.7899
16.99667	0.7887
17.00000	0.7877
17.00333	0.7871
17.00667	0.7847
17.01000	0.7852
17.01333	0.7819
17.01667	0.7797
17.02000	0.7806
17.02333	0.7826
17.02667	0.7827
17.03000	0.7804
17.03333	0.7794
17.03667	0.7778
17.04000	0.7761
17.04333	0.7761
17.04667	0.7762
17.05000	0.7778
17.05333	0.7766
17.05667	0.7749
17.06000	0.7737
17.06333	0.7725
17.06667	0.7710
17.07000	0.7704
17.07333	0.7707
17.07667	0.7697
17.08000	0.7699
17.08333	0.7697
17.08667	0.7672
17.09000	0.7648
17.09333	0.7655
17.09667	0.7651
17.10000	0.7644
17.10333	0.7632
17.10667	0.7607
17.11000	0.7607
17.11333	0.7592
17.11667	0.7601
17.12000	0.7580
17.12333	0.7562
17.12667	0.7568
17.13000	0.7574
17.13333	0.7564
17.13667	0.7556
17.14000	0.7555
17.14333	0.7527
17.14667	0.7514
17.15000	0.7493
17.15333	0.7493
17.15667	0.7512
17.16000	0.7531
17.16333	0.7540
17.16667	0.7519
17.17000	0.7495
17.17333	0.7492
17.17667	0.7486
17.18000	0.7452
17.18333	0.7457
17.18667	0.7452
17.19000	0.7447
17.19333	0.7468
17.19667	0.7470
17.20000	0.7476
17.20333	0.7476
17.20667	0.7456
17.21000	0.7424
17.21333	0.7396
17.21667	0.7387
17.22000	0.7394
17.22333	0.7386
17.22667	0.7391
17.23000	0.7406
17.23333	0.7388
17.23667	0.7377
17.24000	0.7378
17.24333	0.7371
17.24667	0.7357
17.25000	0.7354
17.25333	0.7362
17.25667	0.7347
17.26000	0.7336
17.26333	0.7333
17.26667	0.7334
17.27000	0.7310
17.27333	0.7292
17.27667	0.7297
17.28000	0.7299
17.28333	0.7301
17.28667	0.7306
17.29000	0.7302
17.29333	0.7297
17.29667	0.7272
17.30000	0.7263
17.30333	0.7252
17.30667	0.7239
17.31000	0.7241
17.31333	0.7243
17.31667	0.7222
17.32000	0.7221
17.32333	0.7217
17.32667	0.7201
17.33000	0.7207
17.33333	0.7205
17.33667	0.7185
17.34000	0.7193
17.34333	0.7182
17.34667	0.7165
17.35000	0.7147
17.35333	0.7136
17.35667	0.7133
17.36000	0.7140
17.36333	0.7148
17.36667	0.7122
17.37000	0.7109
17.37333	0.7088
17.37667	0.7103
17.38000	0.7106
17.38333	0.7101
17.38667	0.7096
17.39000	0.7102
17.39333	0.7087
17.39667	0.7081
17.40000	0.7072
17.40333	0.7063
17.40667	0.7054
17.41000	0.7047
17.41333	0.7030
17.41667	0.7033
17.42000	0.7042
17.42333	0.7035
17.42667	0.7037
17.43000	0.7036
17.43333	0.7047
17.43667	0.7026
17.44000	0.7007
17.44333	0.6995
17.44667	0.6992
17.45000	0.6983
17.45333	0.6956
17.45667	0.6959
17.46000	0.6958
17.46333	0.6948
17.46667	0.6932
17.47000	0.6937
17.47333	0.6941
17.47667	0.6943
17.48000	0.6923
17.48333	0.6903
17.48667	0.6906
17.49000	0.6908
17.49333	0.6926
17.49667	0.6910
17.50000	0.6895
17.50333	0.6906
17.50667	0.6888
17.51000	0.6889
17.51333	0.6907
17.51667	0.6901
17.52000	0.6892
17.52333	0.6882
17.52667	0.6874
17.53000	0.6871
17.53333	0.6867
17.53667	0.6855
17.54000	0.6853
17.54333	0.6853
17.54667	0.6835
17.55000	0.6826
17.55333	0.6827
17.55667	0.6824
17.56000	0.6821
17.56333	0.6806
17.56667	0.6823
17.57000	0.6823
17.57333	0.6805
17.57667	0.6791
17.58000	0.6780
17.58333	0.6780
17.58667	0.6759
17.59000	0.6754
17.59333	0.6755
17.59667	0.6746
17.60000	0.6749
17.60333	0.6748
17.60667	0.6739
17.61000	0.6733
17.61333	0.6745
17.61667	0.6729
17.62000	0.6724
17.62333	0.6709
17.62667	0.6710
17.63000	0.6710
17.63333	0.6710
17.63667	0.6706
17.64000	0.6689
17.64333	0.6668
17.64667	0.6664
17.65000	0.6668
17.65333	0.6666
17.65667	0.6656
17.66000	0.6659
17.66333	0.6662
17.66667	0.6658
17.67000	0.6636
17.67333	0.6642
17.67667	0.6623
17.68000	0.6598
17.68333	0.6613
17.68667	0.6637
17.69000	0.6639
17.69333	0.6601
17.69667	0.6588
17.70000	0.6585
17.70333	0.6576
17.70667	0.6581
17.71000	0.6585
17.71333	0.6575
17.71667	0.6565
17.72000	0.6572
17.72333	0.6551
17.72667	0.6546
17.73000	0.6539
17.73333	0.6538
17.73667	0.6517
17.74000	0.6519
17.74333	0.6532
17.74667	0.6535
17.75000	0.6544
17.75333	0.6543
17.75667	0.6551
17.76000	0.6546
17.76333	0.6519
17.76667	0.6510
17.77000	0.6505
17.77333	0.6509
17.77667	0.6510
17.78000	0.6505
17.78333	0.6494
17.78667	0.6491
17.79000	0.6478
17.79333	0.6459
17.79667	0.6475
17.80000	0.6464
17.80333	0.6428
17.80667	0.6425
17.81000	0.6444
17.81333	0.6451
17.81667	0.6460
17.82000	0.6463
17.82333	0.6453
17.82667	0.6446
17.83000	0.6439
17.83333	0.6455
17.83667	0.6463
17.84000	0.6446
17.84333	0.6426
17.84667	0.6396
17.85000	0.6407
17.85333	0.6430
17.85667	0.6440
17.86000	0.6430
17.86333	0.6420
17.86667	0.6410
17.87000	0.6394
17.87333	0.6378
17.87667	0.6380
17.88000	0.6369
17.88333	0.6341
17.88667	0.6333
17.89000	0.6352
17.89333	0.6360
17.89667	0.6347
17.90000	0.6342
17.90333	0.6356
17.90667	0.6350
17.91000	0.6343
17.91333	0.6359
17.91667	0.6359
17.92000	0.6344
17.92333	0.6329
17.92667	0.6315
17.93000	0.6338
17.93333	0.6357
17.93667	0.6343
17.94000	0.6334
17.94333	0.6340
17.94667	0.6326
17.95000	0.6317
17.95333	0.6310
17.95667	0.6301
17.96000	0.6302
17.96333	0.6299
17.96667	0.6295
17.97000	0.6276
17.97333	0.6274
17.97667	0.6282
17.98000	0.6279
17.98333	0.6258
17.98667	0.6247
17.99000	0.6253
17.99333	0.6258
17.99667	0.6263
18.00000	0.6272
18.00333	0.6278
18.00667	0.6270
18.01000	0.6264
18.01333	0.6273
18.01667	0.6267
18.02000	0.6242
18.02333	0.6215
18.02667	0.6229
18.03000	0.6239
18.03333	0.6239
18.03667	0.6241
18.04000	0.6242
18.04333	0.6250
18.04667	0.6235
18.05000	0.6240
18.05333	0.6257
18.05667	0.6248
18.06000	0.6238
18.06333	0.6239
18.06667	0.6241
18.07000	0.6229
18.07333	0.6222
18.07667	0.6217
18.08000	0.6226
18.08333	0.6249
18.08667	0.6261
18.09000	0.6250
18.09333	0.6219
18.09667	0.6218
18.10000	0.6232
18.10333	0.6219
18.10667	0.6197
18.11000	0.6194
18.11333	0.6207
18.11667	0.6221
18.12000	0.6232
18.12333	0.6230
18.12667	0.6234
18.13000	0.6228
18.13333	0.6225
18.13667	0.6226
18.14000	0.6221
18.14333	0.6228
18.14667	0.6245
18.15000	0.6258
18.15333	0.6248
18.15667	0.6234
18.16000	0.6226
18.16333	0.6225
18.16667	0.6213
18.17000	0.6206
18.17333	0.6217
18.17667	0.6224
18.18000	0.6221
18.18333	0.6220
18.18667	0.6236
18.19000	0.6268
18.19333	0.6262
18.19667	0.6240
18.20000	0.6244
18.20333	0.6249
18.20667	0.6270
18.21000	0.6278
18.21333	0.6263
18.21667	0.6248
18.22000	0.6237
18.22333	0.6244
18.22667	0.6253
18.23000	0.6238
18.23333	0.6244
18.23667	0.6261
18.24000	0.6269
18.24333	0.6291
18.24667	0.6294
18.25000	0.6299
18.25333	0.6287
18.25667	0.6256
18.26000	0.6247
18.26333	0.6245
18.26667	0.6254
18.27000	0.6263
18.27333	0.6260
18.27667	0.6269
18.28000	0.6274
18.28333	0.6284
18.28667	0.6284
18.29000	0.6272
18.29333	0.6275
18.29667	0.6266
18.30000	0.6271
18.30333	0.6305
18.30667	0.6303
18.31000	0.6288
18.31333	0.6290
18.31667	0.6313
18.32000	0.6326
18.32333	0.6307
18.32667	0.6297
18.33000	0.6281
18.33333	0.6263
18.33667	0.6275
18.34000	0.6288
18.34333	0.6294
18.34667	0.6304
18.35000	0.6309
18.35333	0.6310
18.35667	0.6320
18.36000	0.6319
18.36333	0.6335
18.36667	0.6337
18.37000	0.6313
18.37333	0.6283
18.37667	0.6263
18.38000	0.6280
18.38333	0.6297
18.38667	0.6304
18.39000	0.6309
18.39333	0.6310
18.39667	0.6315
18.40000	0.6309
18.40333	0.6306
18.40667	0.6325
18.41000	0.6343
18.41333	0.6339
18.41667	0.6321
18.42000	0.6306
18.42333	0.6316
18.42667	0.6338
18.43000	0.6338
18.43333	0.6331
18.43667	0.6320
18.44000	0.6332
18.44333	0.6337
18.44667	0.6331
18.45000	0.6335
18.45333	0.6324
18.45667	0.6322
18.46000	0.6324
18.46333	0.6320
18.46667	0.6331
18.47000	0.6339
18.47333	0.6334
18.47667	0.6325
18.48000	0.6331
18.48333	0.6333
18.48667	0.6325
18.49000	0.6321
18.49333	0.6320
18.49667	0.6320
18.50000	0.6309
18.50333	0.6307
18.50667	0.6310
18.51000	0.6304
18.51333	0.6306
18.51667	0.6298
18.52000	0.6302
18.52333	0.6315
18.52667	0.6314
18.53000	0.6282
18.53333	0.6268
18.53667	0.6270
18.54000	0.6281
18.54333	0.6277
18.54667	0.6265
18.55000	0.6278
18.55333	0.6289
18.55667	0.6278
18.56000	0.6294
18.56333	0.6308
18.56667	0.6286
18.57000	0.6278
18.57333	0.6315
18.57667	0.6290
18.58000	0.6269
18.58333	0.6294
18.58667	0.6290
18.59000	0.6257
18.59333	0.6248
18.59667	0.6256
18.60000	0.6266
18.60333	0.6263
18.60667	0.6248
18.61000	0.6241
18.61333	0.6240
18.61667	0.6258
18.62000	0.6269
18.62333	0.6264
18.62667	0.6279
18.63000	0.6252
18.63333	0.6239
18.63667	0.6209
18.64000	0.6198
18.64333	0.6194
18.64667	0.6203
18.65000	0.6235
18.65333	0.6229
18.65667	0.6227
18.66000	0.6217
18.66333	0.6236
18.66667	0.6255
18.67000	0.6221
18.67333	0.6215
18.67667	0.6232
18.68000	0.6233
18.68333	0.6224
18.68667	0.6194
18.69000	0.6175
18.69333	0.6177
18.69667	0.6206
18.70000	0.6205
18.70333	0.6187
18.70667	0.6174
18.71000	0.6150
18.71333	0.6154
18.71667	0.6179
18.72000	0.6155
18.72333	0.6135
18.72667	0.6171
18.73000	0.6168
18.73333	0.6161
18.73667	0.6160
18.74000	0.6167
18.74333	0.6163
18.74667	0.6167
18.75000	0.6156
18.75333	0.6137
18.75667	0.6131
18.76000	0.6116
18.76333	0.6124
18.76667	0.6116
18.77000	0.6110
18.77333	0.6089
18.77667	0.6074
18.78000	0.6070
18.78333	0.6077
18.78667	0.6094
18.79000	0.6085
18.79333	0.6059
18.79667	0.6058
18.80000	0.6053
18.80333	0.6050
18.80667	0.6057
18.81000	0.6067
18.81333	0.6077
18.81667	0.6058
18.82000	0.6058
18.82333	0.6053
18.82667	0.6057
18.83000	0.6030
18.83333	0.6013
18.83667	0.6032
18.84000	0.6017
18.84333	0.6025
18.84667	0.5970
18.85000	0.5966
18.85333	0.6007
18.85667	0.6012
18.86000	0.6010
18.86333	0.5995
18.86667	0.5983
18.87000	0.5988
18.87333	0.5997
18.87667	0.5985
18.88000	0.5950
18.88333	0.5964
18.88667	0.5954
18.89000	0.5950
18.89333	0.5958
18.89667	0.5937
18.90000	0.5930
18.90333	0.5922
18.90667	0.5928
18.91000	0.5930
18.91333	0.5938
18.91667	0.5885
18.92000	0.5871
18.92333	0.5902
18.92667	0.5870
18.93000	0.5853
18.93333	0.5858
18.93667	0.5860
18.94000	0.5844
18.94333	0.5840
18.94667	0.5848
18.95000	0.5850
18.95333	0.5850
18.95667	0.5826
18.96000	0.5837
18.96333	0.5832
18.96667	0.5830
18.97000	0.5846
18.97333	0.5842
18.97667	0.5848
18.98000	0.5800
18.98333	0.5774
18.98667	0.5745
18.99000	0.5774
18.99333	0.5771
18.99667	0.5770
19.00000	0.5795
19.00333	0.5783
19.00667	0.5797
19.01000	0.5758
19.01333	0.5759
19.01667	0.5760
19.02000	0.5760
19.02333	0.5743
19.02667	0.5714
19.03000	0.5710
19.03333	0.5701
19.03667	0.5691
19.04000	0.5690
19.04333	0.5699
19.04667	0.5691
19.05000	0.5673
19.05333	0.5661
19.05667	0.5678
19.06000	0.5680
19.06333	0.5698
19.06667	0.5700
19.07000	0.5673
19.07333	0.5670
19.07667	0.5652
19.08000	0.5641
19.08333	0.5631
19.08667	0.5630
19.09000	0.5630
19.09333	0.5657
19.09667	0.5678
19.10000	0.5653
19.10333	0.5623
19.10667	0.5638
19.11000	0.5640
19.11333	0.5640
19.11667	0.5613
19.12000	0.5610
19.12333	0.5619
19.12667	0.5583
19.13000	0.5562
19.13333	0.5579
19.13667	0.5599
19.14000	0.5581
19.14333	0.5589
19.14667	0.5590
19.15000	0.5590
19.15333	0.5590
19.15667	0.5581
19.16000	0.5608
19.16333	0.5600
19.16667	0.5590
19.17000	0.5609
19.17333	0.5600
19.17667	0.5562
19.18000	0.5608
19.18333	0.5610
19.18667	0.5562
19.19000	0.5579
19.19333	0.5599
19.19667	0.5619
19.20000	0.5610
19.20333	0.5600
19.20667	0.5600
19.21000	0.5590
19.21333	0.5619
19.21667	0.5610
19.22000	0.5640
19.22333	0.5650
19.22667	0.5650
19.23000	0.5620
19.23333	0.5660
19.23667	0.5670
19.24000	0.5660
19.24333	0.5660
19.24667	0.5675
19.25000	0.5683
19.25333	0.5681
19.25667	0.5696
19.26000	0.5708
19.26333	0.5734
19.26667	0.5752
19.27000	0.5761
19.27333	0.5756
19.27667	0.5773
19.28000	0.5771
19.28333	0.5776
19.28667	0.5809
19.29000	0.5855
19.29333	0.5858
19.29667	0.5854
19.30000	0.5888
19.30333	0.5920
19.30667	0.5935
19.31000	0.5953
19.31333	0.5967
19.31667	0.5984
19.32000	0.5997
19.32333	0.6004
19.32667	0.6038
19.33000	0.6049
19.33333	0.6086
19.33667	0.6119
19.34000	0.6171
19.34333	0.6197
19.34667	0.6209
19.35000	0.6220
19.35333	0.6241
19.35667	0.6282
19.36000	0.6318
19.36333	0.6361
19.36667	0.6413
19.37000	0.6448
19.37333	0.6486
19.37667	0.6535
19.38000	0.6554
19.38333	0.6604
19.38667	0.6671
19.39000	0.6707
19.39333	0.6762
19.39667	0.6793
19.40000	0.6833
19.40333	0.6869
19.40667	0.6912
19.41000	0.6996
19.41333	0.7072
19.41667	0.7125
19.42000	0.7170
19.42333	0.7229
19.42667	0.7283
19.43000	0.7351
19.43333	0.7420
19.43667	0.7479
19.44000	0.7555
19.44333	0.7628
19.44667	0.7726
19.45000	0.7798
19.45333	0.7859
19.45667	0.7951
19.46000	0.8038
19.46333	0.8121
19.46667	0.8213
19.47000	0.8298
19.47333	0.8414
19.47667	0.8505
19.48000	0.8595
19.48333	0.8685
19.48667	0.8798
19.49000	0.8903
19.49333	0.9017
19.49667	0.9107
19.50000	0.9230
19.50333	0.9357
19.50667	0.9480
19.51000	0.9596
19.51333	0.9731
19.51667	0.9875
19.52000	1.0022
19.52333	1.0154
19.52667	1.0291
19.53000	1.0441
19.53333	1.0586
19.53667	1.0734
19.54000	1.0911
19.54333	1.1094
19.54667	1.1260
19.55000	1.1412
19.55333	1.1585
19.55667	1.1762
19.56000	1.1942
19.56333	1.2122
19.56667	1.2319
19.57000	1.2523
19.57333	1.2737
19.57667	1.2938
19.58000	1.3155
19.58333	1.3368
19.58667	1.3598
19.59000	1.3816
19.59333	1.4036
19.59667	1.4279
19.60000	1.4553
19.60333	1.4804
19.60667	1.5060
19.61000	1.5314
19.61333	1.5599
19.61667	1.5889
19.62000	1.6190
19.62333	1.6479
19.62667	1.6763
19.63000	1.7058
19.63333	1.7350
19.63667	1.7659
19.64000	1.7998
19.64333	1.8353
19.64667	1.8678
19.65000	1.8997
19.65333	1.9373
19.65667	1.9746
19.66000	2.0125
19.66333	2.0503
19.66667	2.0862
19.67000	2.1267
19.67333	2.1678
19.67667	2.2099
19.68000	2.2525
19.68333	2.2943
19.68667	2.3374
19.69000	2.3819
19.69333	2.4278
19.69667	2.4751
19.70000	2.5243
19.70333	2.5716
19.70667	2.6216
19.71000	2.6733
19.71333	2.7253
19.71667	2.7782
19.72000	2.8318
19.72333	2.8884
19.72667	2.9426
19.73000	3.0004
19.73333	3.0578
19.73667	3.1168
19.74000	3.1772
19.74333	3.2419
19.74667	3.3060
19.75000	3.3701
19.75333	3.4365
19.75667	3.5034
19.76000	3.5718
19.76333	3.6403
19.76667	3.7124
19.77000	3.7836
19.77333	3.8598
19.77667	3.9364
19.78000	4.0122
19.78333	4.0905
19.78667	4.1688
19.79000	4.2503
19.79333	4.3321
19.79667	4.4138
19.80000	4.5009
19.80333	4.5893
19.80667	4.6807
19.81000	4.7673
19.81333	4.8574
19.81667	4.9524
19.82000	5.0502
19.82333	5.1469
19.82667	5.2441
19.83000	5.3453
19.83333	5.4473
19.83667	5.5528
19.84000	5.6588
19.84333	5.7666
19.84667	5.8763
19.85000	5.9852
19.85333	6.0966
19.85667	6.2094
19.86000	6.3279
19.86333	6.4483
19.86667	6.5667
19.87000	6.6858
19.87333	6.8095
19.87667	6.9364
19.88000	7.0646
19.88333	7.1934
19.88667	7.3243
19.89000	7.4581
19.89333	7.5947
19.89667	7.7339
19.90000	7.8740
19.90333	8.0191
19.90667	8.1646
19.91000	8.3083
19.91333	8.4552
19.91667	8.6034
19.92000	8.7548
19.92333	8.9096
19.92667	9.0655
19.93000	9.2260
19.93333	9.3861
19.93667	9.5502
19.94000	9.7139
19.94333	9.8807
19.94667	10.0529
19.95000	10.2252
19.95333	10.3998
19.95667	10.5754
19.96000	10.7528
19.96333	10.9343
19.96667	11.1176
19.97000	11.3034
19.97333	11.4928
19.97667	11.6804
19.98000	11.8711
19.98333	12.0654
19.98667	12.2630
19.99000	12.4613
19.99333	12.6627
19.99667	12.8659
20.00000	13.0713
20.00333	13.2775
20.00667	13.4910
20.01000	13.7055
20.01333	13.9214
20.01667	14.1416
20.02000	14.3602
20.02333	14.5816
20.02667	14.8044
20.03000	15.0314
20.03333	15.2605
20.03667	15.4917
20.04000	15.7249
20.04333	15.9609
20.04667	16.2015
20.05000	16.4418
20.05333	16.6829
20.05667	16.9276
20.06000	17.1774
20.06333	17.4289
20.06667	17.6832
20.07000	17.9380
20.07333	18.1986
20.07667	18.4611
20.08000	18.7223
20.08333	18.9855
20.08667	19.2511
20.09000	19.5223
20.09333	19.7929
20.09667	20.0649
20.10000	20.3399
20.10333	20.6158
20.10667	20.8944
20.11000	21.1776
20.11333	21.4617
20.11667	21.7491
20.12000	22.0379
20.12333	22.3294
20.12667	22.6221
20.13000	22.9170
20.13333	23.2178
20.13667	23.5186
20.14000	23.8193
20.14333	24.1226
20.14667	24.4303
20.15000	24.7386
20.15333	25.0495
20.15667	25.3627
20.16000	25.6785
20.16333	25.9951
20.16667	26.3153
20.17000	26.6372
20.17333	26.9601
20.17667	27.2858
20.18000	27.6106
20.18333	27.9398
20.18667	28.2722
20.19000	28.6069
20.19333	28.9432
20.19667	29.2801
20.20000	29.6189
20.20333	29.9618
20.20667	30.3064
20.21000	30.6506
20.21333	30.9976
20.21667	31.3486
20.22000	31.7010
20.22333	32.0544
20.22667	32.4080
20.23000	32.7644
20.23333	33.1254
20.23667	33.4854
20.24000	33.8472
20.24333	34.2117
20.24667	34.5777
20.25000	34.9439
20.25333	35.3141
20.25667	35.6867
20.26000	36.0625
20.26333	36.4342
20.26667	36.8070
20.27000	37.1821
20.27333	37.5626
20.27667	37.9441
20.28000	38.3262
20.28333	38.7097
20.28667	39.0945
20.29000	39.4818
20.29333	39.8680
20.29667	40.2553
20.30000	40.6437
20.30333	41.0387
20.30667	41.4323
20.31000	41.8278
20.31333	42.2226
20.31667	42.6198
20.32000	43.0176
20.32333	43.4152
20.32667	43.8123
20.33000	44.2118
20.33333	44.6146
20.33667	45.0153
20.34000	45.4179
20.34333	45.8220
20.34667	46.2276
20.35000	46.6333
20.35333	47.0401
20.35667	47.4470
20.36000	47.8590
20.36333	48.2659
20.36667	48.6717
20.37000	49.0806
20.37333	49.4913
20.37667	49.8988
20.38000	50.3096
20.38333	50.7196
20.38667	51.1291
20.39000	51.5428
20.39333	51.9547
20.39667	52.3669
20.40000	52.7805
20.40333	53.1973
20.40667	53.6092
20.41000	54.0204
20.41333	54.4352
20.41667	54.8507
20.42000	55.2638
20.42333	55.6743
20.42667	56.0850
20.43000	56.4956
20.43333	56.9085
20.43667	57.3191
20.44000	57.7274
20.44333	58.1370
20.44667	58.5465
20.45000	58.9524
20.45333	59.3568
20.45667	59.7617
20.46000	60.1673
20.46333	60.5715
20.46667	60.9712
20.47000	61.3707
20.47333	61.7687
20.47667	62.1660
20.48000	62.5596
20.48333	62.9530
20.48667	63.3461
20.49000	63.7385
20.49333	64.1299
20.49667	64.5203
20.50000	64.9080
20.50333	65.2952
20.50667	65.6788
20.51000	66.0594
20.51333	66.4381
20.51667	66.8156
20.52000	67.1872
20.52333	67.5590
20.52667	67.9280
20.53000	68.2941
20.53333	68.6591
20.53667	69.0191
20.54000	69.3763
20.54333	69.7299
20.54667	70.0841
20.55000	70.4354
20.55333	70.7815
20.55667	71.1235
20.56000	71.4643
20.56333	71.7972
20.56667	72.1261
20.57000	72.4518
20.57333	72.7746
20.57667	73.0964
20.58000	73.4101
20.58333	73.7193
20.58667	74.0229
20.59000	74.3245
20.59333	74.6214
20.59667	74.9132
20.60000	75.2012
20.60333	75.4847
20.60667	75.7603
20.61000	76.0301
20.61333	76.2952
20.61667	76.5587
20.62000	76.8155
20.62333	77.0658
20.62667	77.3079
20.63000	77.5435
20.63333	77.7760
20.63667	77.9997
20.64000	78.2175
20.64333	78.4290
20.64667	78.6365
20.65000	78.8367
20.65333	79.0273
20.65667	79.2134
20.66000	79.3924
20.66333	79.5641
20.66667	79.7295
20.67000	79.8874
20.67333	80.0373
20.67667	80.1799
20.68000	80.3142
20.68333	80.4407
20.68667	80.5617
20.69000	80.6753
20.69333	80.7788
20.69667	80.8713
20.70000	80.9561
20.70333	81.0329
20.70667	81.1009
20.71000	81.1612
20.71333	81.2122
20.71667	81.2549
20.72000	81.2878
20.72333	81.3136
20.72667	81.3310
20.73000	81.3383
20.73333	81.3366
20.73667	81.3245
20.74000	81.3038
20.74333	81.2761
20.74667	81.2365
20.75000	81.1883
20.75333	81.1310
20.75667	81.0636
20.76000	80.9841
20.76333	80.8943
20.76667	80.8004
20.77000	80.6963
20.77333	80.5814
20.77667	80.4570
20.78000	80.3221
20.78333	80.1793
20.78667	80.0265
20.79000	79.8610
20.79333	79.6871
20.79667	79.5040
20.80000	79.3143
20.80333	79.1128
20.80667	78.9016
20.81000	78.6838
20.81333	78.4588
20.81667	78.2259
20.82000	77.9821
20.82333	77.7295
20.82667	77.4698
20.83000	77.2009
20.83333	76.9235
20.83667	76.6398
20.84000	76.3492
20.84333	76.0495
20.84667	75.7399
20.85000	75.4244
20.85333	75.1025
20.85667	74.7743
20.86000	74.4395
20.86333	74.1011
20.86667	73.7553
20.87000	73.4031
20.87333	73.0434
20.87667	72.6781
20.88000	72.3097
20.88333	71.9362
20.88667	71.5573
20.89000	71.1733
20.89333	70.7849
20.89667	70.3922
20.90000	69.9967
20.90333	69.5962
20.90667	69.1936
20.91000	68.7870
20.91333	68.3765
20.91667	67.9645
20.92000	67.5497
20.92333	67.1345
20.92667	66.7178
20.93000	66.2995
20.93333	65.8763
20.93667	65.4538
20.94000	65.0308
20.94333	64.6060
20.94667	64.1806
20.95000	63.7577
20.95333	63.3371
20.95667	62.9141
20.96000	62.4868
20.96333	62.0625
20.96667	61.6403
20.97000	61.2188
20.97333	60.7968
20.97667	60.3746
20.98000	59.9565
20.98333	59.5420
20.98667	59.1272
20.99000	58.7115
20.99333	58.3020
20.99667	57.8941
21.00000	57.4880
21.00333	57.0824
21.00667	56.6796
21.01000	56.2822
21.01333	55.8899
21.01667	55.4976
21.02000	55.1035
21.02333	54.7178
21.02667	54.3387
21.03000	53.9598
21.03333	53.5813
21.03667	53.2088
21.04000	52.8392
21.04333	52.4717
21.04667	52.1077
21.05000	51.7478
21.05333	51.3914
21.05667	51.0387
21.06000	50.6881
21.06333	50.3417
21.06667	49.9993
21.07000	49.6630
21.07333	49.3275
21.07667	48.9932
21.08000	48.6733
21.08333	48.3669
21.08667	48.0643
21.09000	47.7586
21.09333	47.4459
21.09667	47.1277
21.10000	46.8111
21.10333	46.4994
21.10667	46.1966
21.11000	45.8982
21.11333	45.6044
21.11667	45.3148
21.12000	45.0256
21.12333	44.7404
21.12667	44.4592
21.13000	44.1796
21.13333	43.9032
21.13667	43.6348
21.14000	43.3687
21.14333	43.1035
21.14667	42.8393
21.15000	42.5797
21.15333	42.3253
21.15667	42.0720
21.16000	41.8212
21.16333	41.5728
21.16667	41.3270
21.17000	41.0849
21.17333	40.8463
21.17667	40.6107
21.18000	40.3771
21.18333	40.1470
21.18667	39.9188
21.19000	39.6918
21.19333	39.4699
21.19667	39.2501
21.20000	39.0343
21.20333	38.8198
21.20667	38.6066
21.21000	38.3945
21.21333	38.1843
21.21667	37.9760
21.22000	37.7700
21.22333	37.5683
21.22667	37.3680
21.23000	37.1690
21.23333	36.9724
21.23667	36.7789
21.24000	36.5878
21.24333	36.3975
21.24667	36.2088
21.25000	36.0223
21.25333	35.8363
21.25667	35.6532
21.26000	35.4729
21.26333	35.2945
21.26667	35.1166
21.27000	34.9403
21.27333	34.7655
21.27667	34.5914
21.28000	34.4191
21.28333	34.2491
21.28667	34.0814
21.29000	33.9147
21.29333	33.7520
21.29667	33.5896
21.30000	33.4269
21.30333	33.2658
21.30667	33.1070
21.31000	32.9500
21.31333	32.7943
21.31667	32.6389
21.32000	32.4839
21.32333	32.3312
21.32667	32.1807
21.33000	32.0289
21.33333	31.8779
21.33667	31.7306
21.34000	31.5855
21.34333	31.4415
21.34667	31.2970
21.35000	31.1540
21.35333	31.0130
21.35667	30.8717
21.36000	30.7327
21.36333	30.5955
21.36667	30.4588
21.37000	30.3219
21.37333	30.1856
21.37667	30.0513
21.38000	29.9207
21.38333	29.7882
21.38667	29.6582
21.39000	29.5292
21.39333	29.4019
21.39667	29.2769
21.40000	29.1501
21.40333	29.0233
21.40667	28.8986
21.41000	28.7763
21.41333	28.6534
21.41667	28.5268
21.42000	28.4017
21.42333	28.2811
21.42667	28.1620
21.43000	28.0438
21.43333	27.9241
21.43667	27.8054
21.44000	27.6903
21.44333	27.5761
21.44667	27.4614
21.45000	27.3455
21.45333	27.2316
21.45667	27.1188
21.46000	27.0067
21.46333	26.8974
21.46667	26.7883
21.47000	26.6772
21.47333	26.5686
21.47667	26.4592
21.48000	26.3518
21.48333	26.2456
21.48667	26.1393
21.49000	26.0345
21.49333	25.9307
21.49667	25.8267
21.50000	25.7258
21.50333	25.6225
21.50667	25.5203
21.51000	25.4181
21.51333	25.3190
21.51667	25.2196
21.52000	25.1165
21.52333	25.0158
21.52667	24.9192
21.53000	24.8244
21.53333	24.7284
21.53667	24.6311
21.54000	24.5352
21.54333	24.4411
21.54667	24.3487
21.55000	24.2543
21.55333	24.1604
21.55667	24.0654
21.56000	23.9738
21.56333	23.8827
21.56667	23.7943
21.57000	23.7039
21.57333	23.6144
21.57667	23.5257
21.58000	23.4384
21.58333	23.3520
21.58667	23.2650
21.59000	23.1789
21.59333	23.0931
21.59667	23.0078
21.60000	22.9234
21.60333	22.8391
21.60667	22.7546
21.61000	22.6713
21.61333	22.5882
21.61667	22.5084
21.62000	22.4291
21.62333	22.3501
21.62667	22.2711
21.63000	22.1911
21.63333	22.1121
21.63667	22.0340
21.64000	21.9581
21.64333	21.8806
21.64667	21.8036
21.65000	21.7283
21.65333	21.6554
21.65667	21.5833
21.66000	21.5096
21.66333	21.4360
21.66667	21.3629
21.67000	21.2906
21.67333	21.2198
21.67667	21.1493
21.68000	21.0778
21.68333	21.0095
21.68667	20.9393
21.69000	20.8716
21.69333	20.8033
21.69667	20.7351
21.70000	20.6656
21.70333	20.5991
21.70667	20.5366
21.71000	20.4702
21.71333	20.4016
21.71667	20.3384
21.72000	20.2754
21.72333	20.2094
21.72667	20.1507
21.73000	20.0913
21.73333	20.0295
21.73667	19.9675
21.74000	19.9055
21.74333	19.8463
21.74667	19.7864
21.75000	19.7279
21.75333	19.6707
21.75667	19.6145
21.76000	19.5559
21.76333	19.4982
21.76667	19.4442
21.77000	19.3904
21.77333	19.3346
21.77667	19.2815
21.78000	19.2271
21.78333	19.1713
21.78667	19.1167
21.79000	19.0624
21.79333	19.0139
21.79667	18.9645
21.80000	18.9105
21.80333	18.8585
21.80667	18.8080
21.81000	18.7588
21.81333	18.7106
21.81667	18.6632
21.82000	18.6159
21.82333	18.5665
21.82667	18.5198
21.83000	18.4711
21.83333	18.4268
21.83667	18.3779
21.84000	18.3321
21.84333	18.2888
21.84667	18.2439
21.85000	18.1995
21.85333	18.1580
21.85667	18.1161
21.86000	18.0714
21.86333	18.0296
21.86667	17.9877
21.87000	17.9474
21.87333	17.9047
21.87667	17.8623
21.88000	17.8203
21.88333	17.7792
21.88667	17.7388
21.89000	17.7021
21.89333	17.6617
21.89667	17.6251
21.90000	17.5856
21.90333	17.5463
21.90667	17.5106
21.91000	17.4756
21.91333	17.4353
21.91667	17.3985
21.92000	17.3632
21.92333	17.3256
21.92667	17.2884
21.93000	17.2584
21.93333	17.2229
21.93667	17.1870
21.94000	17.1527
21.94333	17.1178
21.94667	17.0845
21.95000	17.0522
21.95333	17.0238
21.95667	16.9904
21.96000	16.9544
21.96333	16.9237
21.96667	16.8937
21.97000	16.8619
21.97333	16.8307
21.97667	16.7995
21.98000	16.7676
21.98333	16.7365
21.98667	16.7072
21.99000	16.6780
21.99333	16.6500
21.99667	16.6173
22.00000	16.5918
22.00333	16.5657
22.00667	16.5377
22.01000	16.5069
22.01333	16.4768
22.01667	16.4485
22.02000	16.4223
22.02333	16.3953
22.02667	16.3703
22.03000	16.3461
22.03333	16.3200
22.03667	16.2950
22.04000	16.2681
22.04333	16.2411
22.04667	16.2149
22.05000	16.1888
22.05333	16.1696
22.05667	16.1457
22.06000	16.1206
22.06333	16.0955
22.06667	16.0705
22.07000	16.0465
22.07333	16.0253
22.07667	16.0002
22.08000	15.9812
22.08333	15.9592
22.08667	15.9381
22.09000	15.9160
22.09333	15.8940
22.09667	15.8690
22.10000	15.8480
22.10333	15.8390
22.10667	15.8229
22.11000	15.8054
22.11333	15.7876
22.11667	15.7671
22.12000	15.7473
22.12333	15.7270
22.12667	15.7083
22.13000	15.6904
22.13333	15.6714
22.13667	15.6509
22.14000	15.6301
22.14333	15.6093
22.14667	15.5908
22.15000	15.5725
22.15333	15.5554
22.15667	15.5363
22.16000	15.5192
22.16333	15.5012
22.16667	15.4821
22.17000	15.4662
22.17333	15.4501
22.17667	15.4320
22.18000	15.4171
22.18333	15.3990
22.18667	15.3825
22.19000	15.3646
22.19333	15.3482
22.19667	15.3326
22.20000	15.3162
22.20333	15.3020
22.20667	15.2864
22.21000	15.2716
22.21333	15.2562
22.21667	15.2409
22.22000	15.2258
22.22333	15.2112
22.22667	15.1970
22.23000	15.1812
22.23333	15.1674
22.23667	15.1525
22.24000	15.1406
22.24333	15.1282
22.24667	15.1133
22.25000	15.0994
22.25333	15.0854
22.25667	15.0725
22.26000	15.0611
22.26333	15.0477
22.26667	15.0356
22.27000	15.0204
22.27333	15.0074
22.27667	14.9959
22.28000	14.9826
22.28333	14.9716
22.28667	14.9595
22.29000	14.9485
22.29333	14.9359
22.29667	14.9241
22.30000	14.9138
22.30333	14.9020
22.30667	14.8896
22.31000	14.8795
22.31333	14.8679
22.31667	14.8571
22.32000	14.8451
22.32333	14.8336
22.32667	14.8224
22.33000	14.8118
22.33333	14.8010
22.33667	14.7911
22.34000	14.7801
22.34333	14.7680
22.34667	14.7560
22.35000	14.7456
22.35333	14.7370
22.35667	14.7271
22.36000	14.7177
22.36333	14.7090
22.36667	14.6990
22.37000	14.6869
22.37333	14.6780
22.37667	14.6669
22.38000	14.6564
22.38333	14.6456
22.38667	14.6359
22.39000	14.6270
22.39333	14.6164
22.39667	14.6056
22.40000	14.5957
22.40333	14.5858
22.40667	14.5758
22.41000	14.5663
22.41333	14.5561
22.41667	14.5487
22.42000	14.5398
22.42333	14.5286
22.42667	14.5170
22.43000	14.5079
22.43333	14.4978
22.43667	14.4888
22.44000	14.4798
22.44333	14.4707
22.44667	14.4567
22.45000	14.4466
22.45333	14.4366
22.45667	14.4276
22.46000	14.4158
22.46333	14.4044
22.46667	14.3927
22.47000	14.3815
22.47333	14.3736
22.47667	14.3633
22.48000	14.3505
22.48333	14.3410
22.48667	14.3305
22.49000	14.3191
22.49333	14.3068
22.49667	14.2931
22.50000	14.2819
22.50333	14.2697
22.50667	14.2582
22.51000	14.2476
22.51333	14.2366
22.51667	14.2234
22.52000	14.2131
22.52333	14.2007
22.52667	14.1885
22.53000	14.1753
22.53333	14.1644
22.53667	14.1524
22.54000	14.1414
22.54333	14.1282
22.54667	14.1155
22.55000	14.1010
22.55333	14.0872
22.55667	14.0723
22.56000	14.0589
22.56333	14.0441
22.56667	14.0308
22.57000	14.0165
22.57333	14.0011
22.57667	13.9861
22.58000	13.9720
22.58333	13.9552
22.58667	13.9394
22.59000	13.9239
22.59333	13.9059
22.59667	13.8897
22.60000	13.8746
22.60333	13.8583
22.60667	13.8412
22.61000	13.8259
22.61333	13.8112
22.61667	13.7938
22.62000	13.7744
22.62333	13.7569
22.62667	13.7379
22.63000	13.7178
22.63333	13.7001
22.63667	13.6826
22.64000	13.6638
22.64333	13.6459
22.64667	13.6261
22.65000	13.6061
22.65333	13.5849
22.65667	13.5639
22.66000	13.5441
22.66333	13.5258
22.66667	13.5058
22.67000	13.4840
22.67333	13.4620
22.67667	13.4392
22.68000	13.4153
22.68333	13.3931
22.68667	13.3711
22.69000	13.3501
22.69333	13.3284
22.69667	13.3047
22.70000	13.2814
22.70333	13.2568
22.70667	13.2309
22.71000	13.2056
22.71333	13.1815
22.71667	13.1564
22.72000	13.1329
22.72333	13.1079
22.72667	13.0817
22.73000	13.0555
22.73333	13.0276
22.73667	13.0019
22.74000	12.9743
22.74333	12.9478
22.74667	12.9223
22.75000	12.8935
22.75333	12.8646
22.75667	12.8354
22.76000	12.8100
22.76333	12.7817
22.76667	12.7518
22.77000	12.7213
22.77333	12.6921
22.77667	12.6617
22.78000	12.6310
22.78333	12.6007
22.78667	12.5701
22.79000	12.5402
22.79333	12.5099
22.79667	12.4765
22.80000	12.4457
22.80333	12.4144
22.80667	12.3820
22.81000	12.3482
22.81333	12.3162
22.81667	12.2849
22.82000	12.2514
22.82333	12.2176
22.82667	12.1836
22.83000	12.1489
22.83333	12.1139
22.83667	12.0795
22.84000	12.0449
22.84333	12.0116
22.84667	11.9760
22.85000	11.9416
22.85333	11.9040
22.85667	11.8687
22.86000	11.8339
22.86333	11.7982
22.86667	11.7616
22.87000	11.7238
22.87333	11.6879
22.87667	11.6507
22.88000	11.6128
22.88333	11.5738
22.88667	11.5362
22.89000	11.4997
22.89333	11.4611
22.89667	11.4230
22.90000	11.3859
22.90333	11.3471
22.90667	11.3095
22.91000	11.2691
22.91333	11.2318
22.91667	11.1931
22.92000	11.1535
22.92333	11.1141
22.92667	11.0767
22.93000	11.0347
22.93333	10.9931
22.93667	10.9523
22.94000	10.9137
22.94333	10.8745
22.94667	10.8330
22.95000	10.7927
22.95333	10.7510
22.95667	10.7112
22.96000	10.6716
22.96333	10.6289
22.96667	10.5878
22.97000	10.5492
22.97333	10.5078
22.97667	10.4683
22.98000	10.4266
22.98333	10.3873
22.98667	10.3457
22.99000	10.3036
22.99333	10.2618
22.99667	10.2210
23.00000	10.1801
23.00333	10.1387
23.00667	10.0962
23.01000	10.0536
23.01333	10.0120
23.01667	9.9707
23.02000	9.9300
23.02333	9.8886
23.02667	9.8474
23.03000	9.8064
23.03333	9.7653
23.03667	9.7252
23.04000	9.6832
23.04333	9.6408
23.04667	9.5968
23.05000	9.5576
23.05333	9.5172
23.05667	9.4765
23.06000	9.4353
23.06333	9.3914
23.06667	9.3490
23.07000	9.3078
23.07333	9.2657
23.07667	9.2244
23.08000	9.1845
23.08333	9.1414
23.08667	9.0993
23.09000	9.0605
23.09333	9.0181
23.09667	8.9774
23.10000	8.9372
23.10333	8.8975
23.10667	8.8572
23.11000	8.8154
23.11333	8.7747
23.11667	8.7334
23.12000	8.6922
23.12333	8.6535
23.12667	8.6163
23.13000	8.5754
23.13333	8.5339
23.13667	8.4922
23.14000	8.4534
23.14333	8.4145
23.14667	8.3747
23.15000	8.3337
23.15333	8.2957
23.15667	8.2567
23.16000	8.2166
23.16333	8.1781
23.16667	8.1386
23.17000	8.1009
23.17333	8.0621
23.17667	8.0240
23.18000	7.9858
23.18333	7.9491
23.18667	7.9108
23.19000	7.8740
23.19333	7.8351
23.19667	7.7951
23.20000	7.7606
23.20333	7.7248
23.20667	7.6883
23.21000	7.6501
23.21333	7.6139
23.21667	7.5771
23.22000	7.5386
23.22333	7.5023
23.22667	7.4676
23.23000	7.4312
23.23333	7.3957
23.23667	7.3592
23.24000	7.3228
23.24333	7.2878
23.24667	7.2521
23.25000	7.2175
23.25333	7.1826
23.25667	7.1474
23.26000	7.1120
23.26333	7.0779
23.26667	7.0427
23.27000	7.0068
23.27333	6.9744
23.27667	6.9407
23.28000	6.9067
23.28333	6.8724
23.28667	6.8378
23.29000	6.8058
23.29333	6.7748
23.29667	6.7402
23.30000	6.7053
23.30333	6.6724
23.30667	6.6407
23.31000	6.6088
23.31333	6.5762
23.31667	6.5428
23.32000	6.5106
23.32333	6.4767
23.32667	6.4453
23.33000	6.4136
23.33333	6.3833
23.33667	6.3555
23.34000	6.3241
23.34333	6.2913
23.34667	6.2614
23.35000	6.2324
23.35333	6.2007
23.35667	6.1696
23.36000	6.1395
23.36333	6.1081
23.36667	6.0777
23.37000	6.0460
23.37333	6.0153
23.37667	5.9850
23.38000	5.9570
23.38333	5.9286
23.38667	5.8982
23.39000	5.8696
23.39333	5.8387
23.39667	5.8094
23.40000	5.7828
23.40333	5.7525
23.40667	5.7226
23.41000	5.6938
23.41333	5.6653
23.41667	5.6355
23.42000	5.6074
23.42333	5.5786
23.42667	5.5504
23.43000	5.5218
23.43333	5.4942
23.43667	5.4658
23.44000	5.4384
23.44333	5.4123
23.44667	5.3856
23.45000	5.3591
23.45333	5.3323
23.45667	5.3051
23.46000	5.2773
23.46333	5.2504
23.46667	5.2244
23.47000	5.1984
23.47333	5.1709
23.47667	5.1433
23.48000	5.1165
23.48333	5.0894
23.48667	5.0644
23.49000	5.0397
23.49333	5.0138
23.49667	4.9876
23.50000	4.9605
23.50333	4.9353
23.50667	4.9098
23.51000	4.8836
23.51333	4.8583
23.51667	4.8323
23.52000	4.8051
23.52333	4.7803
23.52667	4.7561
23.53000	4.7312
23.53333	4.7056
23.53667	4.6815
23.54000	4.6572
23.54333	4.6333
23.54667	4.6092
23.55000	4.5862
23.55333	4.5622
23.55667	4.5374
23.56000	4.5131
23.56333	4.4903
23.56667	4.4673
23.57000	4.4440
23.57333	4.4191
23.57667	4.3928
23.58000	4.3696
23.58333	4.3485
23.58667	4.3264
23.59000	4.3037
23.59333	4.2796
23.59667	4.2562
23.60000	4.2327
23.60333	4.2107
23.60667	4.1876
23.61000	4.1631
23.61333	4.1403
23.61667	4.1186
23.62000	4.0965
23.62333	4.0745
23.62667	4.0522
23.63000	4.0290
23.63333	4.0071
23.63667	3.9864
23.64000	3.9633
23.64333	3.9423
23.64667	3.9212
23.65000	3.8998
23.65333	3.8780
23.65667	3.8560
23.66000	3.8343
23.66333	3.8136
23.66667	3.7936
23.67000	3.7719
23.67333	3.7496
23.67667	3.7299
23.68000	3.7117
23.68333	3.6929
23.68667	3.6723
23.69000	3.6502
23.69333	3.6297
23.69667	3.6084
23.70000	3.5859
23.70333	3.5647
23.70667	3.5451
23.71000	3.5264
23.71333	3.5075
23.71667	3.4882
23.72000	3.4682
23.72333	3.4479
23.72667	3.4290
23.73000	3.4115
23.73333	3.3906
23.73667	3.3692
23.74000	3.3508
23.74333	3.3348
23.74667	3.3167
23.75000	3.2964
23.75333	3.2788
23.75667	3.2598
23.76000	3.2417
23.76333	3.2234
23.76667	3.2062
23.77000	3.1895
23.77333	3.1723
23.77667	3.1535
23.78000	3.1356
23.78333	3.1182
23.78667	3.0984
23.79000	3.0792
23.79333	3.0619
23.79667	3.0451
23.80000	3.0301
23.80333	3.0129
23.80667	2.9937
23.81000	2.9765
23.81333	2.9607
23.81667	2.9437
23.82000	2.9264
23.82333	2.9110
23.82667	2.8948
23.83000	2.8793
23.83333	2.8647
23.83667	2.8478
23.84000	2.8300
23.84333	2.8124
23.84667	2.7959
23.85000	2.7810
23.85333	2.7664
23.85667	2.7504
23.86000	2.7343
23.86333	2.7201
23.86667	2.7062
23.87000	2.6910
23.87333	2.6759
23.87667	2.6604
23.88000	2.6441
23.88333	2.6296
23.88667	2.6143
23.89000	2.5983
23.89333	2.5844
23.89667	2.5712
23.90000	2.5581
23.90333	2.5442
23.90667	2.5286
23.91000	2.5135
23.91333	2.4993
23.91667	2.4852
23.92000	2.4727
23.92333	2.4602
23.92667	2.4465
23.93000	2.4334
23.93333	2.4215
23.93667	2.4079
23.94000	2.3948
23.94333	2.3813
23.94667	2.3656
23.95000	2.3518
23.95333	2.3390
23.95667	2.3274
23.96000	2.3149
23.96333	2.3020
23.96667	2.2894
23.97000	2.2765
23.97333	2.2634
23.97667	2.2495
23.98000	2.2360
23.98333	2.2237
23.98667	2.2129
23.99000	2.2019
23.99333	2.1913
23.99667	2.1799
24.00000	2.1672
24.00333	2.1541
24.00667	2.1416
24.01000	2.1290
24.01333	2.1170
24.01667	2.1075
24.02000	2.0988
24.02333	2.0894
24.02667	2.0790
24.03000	2.0676
24.03333	2.0547
24.03667	2.0442
24.04000	2.0334
24.04333	2.0226
24.04667	2.0132
24.05000	2.0019
24.05333	1.9915
24.05667	1.9808
24.06000	1.9700
24.06333	1.9621
24.06667	1.9529
24.07000	1.9409
24.07333	1.9309
24.07667	1.9195
24.08000	1.9084
24.08333	1.8980
24.08667	1.8882
24.09000	1.8808
24.09333	1.8727
24.09667	1.8625
24.10000	1.8521
24.10333	1.8420
24.10667	1.8324
24.11000	1.8223
24.11333	1.8130
24.11667	1.8042
24.12000	1.7977
24.12333	1.7888
24.12667	1.7790
24.13000	1.7707
24.13333	1.7616
24.13667	1.7512
24.14000	1.7418
24.14333	1.7331
24.14667	1.7251
24.15000	1.7159
24.15333	1.7072
24.15667	1.6989
24.16000	1.6921
24.16333	1.6836
24.16667	1.6735
24.17000	1.6635
24.17333	1.6556
24.17667	1.6509
24.18000	1.6455
24.18333	1.6355
24.18667	1.6245
24.19000	1.6165
24.19333	1.6113
24.19667	1.6055
24.20000	1.5992
24.20333	1.5915
24.20667	1.5805
24.21000	1.5727
24.21333	1.5665
24.21667	1.5596
24.22000	1.5531
24.22333	1.5448
24.22667	1.5373
24.23000	1.5316
24.23333	1.5248
24.23667	1.5164
24.24000	1.5086
24.24333	1.5026
24.24667	1.4963
24.25000	1.4883
24.25333	1.4800
24.25667	1.4736
24.26000	1.4662
24.26333	1.4590
24.26667	1.4529
24.27000	1.4457
24.27333	1.4384
24.27667	1.4313
24.28000	1.4266
24.28333	1.4205
24.28667	1.4133
24.29000	1.4074
24.29333	1.3982
24.29667	1.3936
24.30000	1.3901
24.30333	1.3841
24.30667	1.3771
24.31000	1.3707
24.31333	1.3653
24.31667	1.3596
24.32000	1.3524
24.32333	1.3457
24.32667	1.3396
24.33000	1.3330
24.33333	1.3254
24.33667	1.3193
24.34000	1.3166
24.34333	1.3105
24.34667	1.3043
24.35000	1.2997
24.35333	1.2944
24.35667	1.2891
24.36000	1.2828
24.36333	1.2759
24.36667	1.2701
24.37000	1.2657
24.37333	1.2604
24.37667	1.2544
24.38000	1.2503
24.38333	1.2459
24.38667	1.2403
24.39000	1.2363
24.39333	1.2299
24.39667	1.2228
24.40000	1.2157
24.40333	1.2113
24.40667	1.2088
24.41000	1.2035
24.41333	1.1960
24.41667	1.1913
24.42000	1.1881
24.42333	1.1838
24.42667	1.1782
24.43000	1.1735
24.43333	1.1668
24.43667	1.1616
24.44000	1.1568
24.44333	1.1558
24.44667	1.1492
24.45000	1.1422
24.45333	1.1375
24.45667	1.1354
24.46000	1.1309
24.46333	1.1250
24.46667	1.1204
24.47000	1.1157
24.47333	1.1107
24.47667	1.1050
24.48000	1.1025
24.48333	1.0992
24.48667	1.0939
24.49000	1.0914
24.49333	1.0861
24.49667	1.0806
24.50000	1.0763
24.50333	1.0730
24.50667	1.0664
24.51000	1.0635
24.51333	1.0616
24.51667	1.0575
24.52000	1.0532
24.52333	1.0499
24.52667	1.0476
24.53000	1.0412
24.53333	1.0355
24.53667	1.0297
24.54000	1.0274
24.54333	1.0234
24.54667	1.0192
24.55000	1.0159
24.55333	1.0106
24.55667	1.0062
24.56000	1.0029
24.56333	0.9976
24.56667	0.9931
24.57000	0.9913
24.57333	0.9873
24.57667	0.9838
24.58000	0.9778
24.58333	0.9746
24.58667	0.9710
24.59000	0.9701
24.59333	0.9677
24.59667	0.9625
24.60000	0.9588
24.60333	0.9557
24.60667	0.9519
24.61000	0.9441
24.61333	0.9414
24.61667	0.9402
24.62000	0.9369
24.62333	0.9345
24.62667	0.9301
24.63000	0.9267
24.63333	0.9221
24.63667	0.9195
24.64000	0.9166
24.64333	0.9129
24.64667	0.9089
24.65000	0.9040
24.65333	0.9031
24.65667	0.8974
24.66000	0.8929
24.66333	0.8920
24.66667	0.8896
24.67000	0.8874
24.67333	0.8862
24.67667	0.8819
24.68000	0.8778
24.68333	0.8729
24.68667	0.8696
24.69000	0.8699
24.69333	0.8659
24.69667	0.8626
24.70000	0.8579
24.70333	0.8554
24.70667	0.8500
24.71000	0.8474
24.71333	0.8470
24.71667	0.8445
24.72000	0.8432
24.72333	0.8396
24.72667	0.8323
24.73000	0.8328
24.73333	0.8321
24.73667	0.8277
24.74000	0.8236
24.74333	0.8179
24.74667	0.8162
24.75000	0.8151
24.75333	0.8124
24.75667	0.8103
24.76000	0.8057
24.76333	0.8024
24.76667	0.7976
24.77000	0.7953
24.77333	0.7950
24.77667	0.7906
24.78000	0.7874
24.78333	0.7852
24.78667	0.7797
24.79000	0.7764
24.79333	0.7769
24.79667	0.7690
24.80000	0.7662
24.80333	0.7678
24.80667	0.7644
24.81000	0.7613
24.81333	0.7601
24.81667	0.7573
24.82000	0.7552
24.82333	0.7532
24.82667	0.7484
24.83000	0.7462
24.83333	0.7460
24.83667	0.7414
24.84000	0.7410
24.84333	0.7373
24.84667	0.7342
24.85000	0.7303
24.85333	0.7328
24.85667	0.7302
24.86000	0.7272
24.86333	0.7214
24.86667	0.7172
24.87000	0.7179
24.87333	0.7189
24.87667	0.7142
24.88000	0.7140
24.88333	0.7102
24.88667	0.7052
24.89000	0.7040
24.89333	0.6992
24.89667	0.6971
24.90000	0.6960
24.90333	0.6921
24.90667	0.6901
24.91000	0.6900
24.91333	0.6890
24.91667	0.6861
24.92000	0.6821
24.92333	0.6820
24.92667	0.6791
24.93000	0.6741
24.93333	0.6700
24.93667	0.6690
24.94000	0.6670
24.94333	0.6670
24.94667	0.6630
24.95000	0.6650
24.95333	0.6630
24.95667	0.6630
24.96000	0.6600
24.96333	0.6570
24.96667	0.6545
24.97000	0.6527
24.97333	0.6503
24.97667	0.6481
24.98000	0.6455
24.98333	0.6422
24.98667	0.6401
24.99000	0.6370
24.99333	0.6365
24.99667	0.6362
25.00000	0.6346
25.00333	0.6348
25.00667	0.6324
25.01000	0.6311
25.01333	0.6270
25.01667	0.6239
25.02000	0.6234
25.02333	0.6207
25.02667	0.6188
25.03000	0.6189
25.03333	0.6174
25.03667	0.6141
25.04000	0.6135
25.04333	0.6102
25.04667	0.6070
25.05000	0.6049
25.05333	0.6019
25.05667	0.6009
25.06000	0.5978
25.06333	0.5943
25.06667	0.5941
25.07000	0.5915
25.07333	0.5886
25.07667	0.5872
25.08000	0.5871
25.08333	0.5865
25.08667	0.5836
25.09000	0.5817
25.09333	0.5803
25.09667	0.5791
25.10000	0.5769
25.10333	0.5754
25.10667	0.5715
25.11000	0.5691
25.11333	0.5685
25.11667	0.5672
25.12000	0.5665
25.12333	0.5636
25.12667	0.5622
25.13000	0.5621
25.13333	0.5610
25.13667	0.5578
25.14000	0.5558
25.14333	0.5553
25.14667	0.5525
25.15000	0.5511
25.15333	0.5489
25.15667	0.5473
25.16000	0.5450
25.16333	0.5455
25.16667	0.5452
25.17000	0.5419
25.17333	0.5403
25.17667	0.5385
25.18000	0.5361
25.18333	0.5371
25.18667	0.5359
25.19000	0.5338
25.19333	0.5323
25.19667	0.5294
25.20000	0.5281
25.20333	0.5275
25.20667	0.5255
25.21000	0.5215
25.21333	0.5212
25.21667	0.5200
25.22000	0.5183
25.22333	0.5176
25.22667	0.5161
25.23000	0.5138
25.23333	0.5111
25.23667	0.5072
25.24000	0.5049
25.24333	0.5050
25.24667	0.5066
25.25000	0.5035
25.25333	0.5027
25.25667	0.5040
25.26000	0.5045
25.26333	0.5031
25.26667	0.5008
25.27000	0.4987
25.27333	0.4971
25.27667	0.4948
25.28000	0.4921
25.28333	0.4898
25.28667	0.4899
25.29000	0.4877
25.29333	0.4879
25.29667	0.4879
25.30000	0.4862
25.30333	0.4845
25.30667	0.4847
25.31000	0.4832
25.31333	0.4836
25.31667	0.4810
25.32000	0.4792
25.32333	0.4768
25.32667	0.4757
25.33000	0.4725
25.33333	0.4710
25.33667	0.4687
25.34000	0.4672
25.34333	0.4677
25.34667	0.4679
25.35000	0.4690
25.35333	0.4672
25.35667	0.4642
25.36000	0.4623
25.36333	0.4604
25.36667	0.4597
25.37000	0.4621
25.37333	0.4626
25.37667	0.4621
25.38000	0.4585
25.38333	0.4554
25.38667	0.4551
25.39000	0.4527
25.39333	0.4517
25.39667	0.4508
25.40000	0.4515
25.40333	0.4511
25.40667	0.4497
25.41000	0.4452
25.41333	0.4422
25.41667	0.4422
25.42000	0.4433
25.42333	0.4442
25.42667	0.4422
25.43000	0.4391
25.43333	0.4368
25.43667	0.4370
25.44000	0.4381
25.44333	0.4369
25.44667	0.4363
25.45000	0.4356
25.45333	0.4358
25.45667	0.4352
25.46000	0.4326
25.46333	0.4299
25.46667	0.4288
25.47000	0.4294
25.47333	0.4274
25.47667	0.4271
25.48000	0.4264
25.48333	0.4249
25.48667	0.4225
25.49000	0.4205
25.49333	0.4201
25.49667	0.4195
25.50000	0.4191
25.50333	0.4178
25.50667	0.4167
25.51000	0.4151
25.51333	0.4144
25.51667	0.4140
25.52000	0.4111
25.52333	0.4116
25.52667	0.4117
25.53000	0.4099
25.53333	0.4069
25.53667	0.4045
25.54000	0.4031
25.54333	0.4044
25.54667	0.4065
25.55000	0.4062
25.55333	0.4058
25.55667	0.4024
25.56000	0.4022
25.56333	0.4021
25.56667	0.4025
25.57000	0.4004
25.57333	0.4001
25.57667	0.3994
25.58000	0.3991
25.58333	0.3984
25.58667	0.3976
25.59000	0.3983
25.59333	0.3969
25.59667	0.3968
25.60000	0.3952
25.60333	0.3956
25.60667	0.3945
25.61000	0.3921
25.61333	0.3891
25.61667	0.3891
25.62000	0.3895
25.62333	0.3879
25.62667	0.3867
25.63000	0.3855
25.63333	0.3839
25.63667	0.3828
25.64000	0.3828
25.64333	0.3819
25.64667	0.3837
25.65000	0.3830
25.65333	0.3806
25.65667	0.3806
25.66000	0.3778
25.66333	0.3779
25.66667	0.3772
25.67000	0.3758
25.67333	0.3745
25.67667	0.3730
25.68000	0.3730
25.68333	0.3727
25.68667	0.3705
25.69000	0.3708
25.69333	0.3709
25.69667	0.3703
25.70000	0.3695
25.70333	0.3688
25.70667	0.3658
25.71000	0.3653
25.71333	0.3648
25.71667	0.3625
25.72000	0.3630
25.72333	0.3639
25.72667	0.3616
25.73000	0.3617
25.73333	0.3607
25.73667	0.3610
25.74000	0.3621
25.74333	0.3612
25.74667	0.3592
25.75000	0.3590
25.75333	0.3582
25.75667	0.3566
25.76000	0.3552
25.76333	0.3562
25.76667	0.3554
25.77000	0.3549
25.77333	0.3534
25.77667	0.3549
25.78000	0.3542
25.78333	0.3528
25.78667	0.3525
25.79000	0.3540
25.79333	0.3532
25.79667	0.3523
25.80000	0.3505
25.80333	0.3485
25.80667	0.3492
25.81000	0.3475
25.81333	0.3454
25.81667	0.3456
25.82000	0.3445
25.82333	0.3435
25.82667	0.3430
25.83000	0.3417
25.83333	0.3414
25.83667	0.3425
25.84000	0.3430
25.84333	0.3441
25.84667	0.3433
25.85000	0.3424
25.85333	0.3419
25.85667	0.3397
25.86000	0.3374
25.86333	0.3371
25.86667	0.3367
25.87000	0.3349
25.87333	0.3342
25.87667	0.3336
25.88000	0.3343
25.88333	0.3333
25.88667	0.3325
25.89000	0.3319
25.89333	0.3311
25.89667	0.3329
25.90000	0.3324
25.90333	0.3294
25.90667	0.3281
25.91000	0.3293
25.91333	0.3289
25.91667	0.3276
25.92000	0.3272
25.92333	0.3272
25.92667	0.3277
25.93000	0.3273
25.93333	0.3241
25.93667	0.3217
25.94000	0.3229
25.94333	0.3245
25.94667	0.3233
25.95000	0.3251
25.95333	0.3251
25.95667	0.3225
25.96000	0.3218
25.96333	0.3201
25.96667	0.3205
25.97000	0.3196
25.97333	0.3195
25.97667	0.3179
25.98000	0.3182
25.98333	0.3192
25.98667	0.3184
25.99000	0.3179
25.99333	0.3170
25.99667	0.3180
26.00000	0.3165
26.00333	0.3155
26.00667	0.3150
26.01000	0.3140
26.01333	0.3131
26.01667	0.3140
26.02000	0.3129
26.02333	0.3132
26.02667	0.3118
26.03000	0.3115
26.03333	0.3098
26.03667	0.3098
26.04000	0.3113
26.04333	0.3090
26.04667	0.3080
26.05000	0.3066
26.05333	0.3065
26.05667	0.3075
26.06000	0.3079
26.06333	0.3078
26.06667	0.3074
26.07000	0.3078
26.07333	0.3076
26.07667	0.3067
26.08000	0.3067
26.08333	0.3061
26.08667	0.3053
26.09000	0.3046
26.09333	0.3029
26.09667	0.3030
26.10000	0.3027
26.10333	0.3012
26.10667	0.2993
26.11000	0.2985
26.11333	0.3011
26.11667	0.3019
26.12000	0.3004
26.12333	0.2996
26.12667	0.2997
26.13000	0.2989
26.13333	0.2977
26.13667	0.2979
26.14000	0.2980
26.14333	0.2980
26.14667	0.2980
26.15000	0.2980
26.15333	0.2975
26.15667	0.2959
26.16000	0.2949
26.16333	0.2916
26.16667	0.2917
26.17000	0.2930
26.17333	0.2923
26.17667	0.2923
26.18000	0.2932
26.18333	0.2941
26.18667	0.2931
26.19000	0.2919
26.19333	0.2909
26.19667	0.2913
26.20000	0.2900
26.20333	0.2882
26.20667	0.2868
26.21000	0.2868
26.21333	0.2858
26.21667	0.2849
26.22000	0.2857
26.22333	0.2855
26.22667	0.2840
26.23000	0.2826
26.23333	0.2826
26.23667	0.2834
26.24000	0.2833
26.24333	0.2834
26.24667	0.2828
26.25000	0.2828
26.25333	0.2810
26.25667	0.2808
26.26000	0.2798
26.26333	0.2791
26.26667	0.2805
26.27000	0.2807
26.27333	0.2802
26.27667	0.2794
26.28000	0.2783
26.28333	0.2793
26.28667	0.2784
26.29000	0.2771
26.29333	0.2778
26.29667	0.2777
26.30000	0.2772
26.30333	0.2764
26.30667	0.2744
26.31000	0.2734
26.31333	0.2733
26.31667	0.2736
26.32000	0.2734
26.32333	0.2731
26.32667	0.2725
26.33000	0.2746
26.33333	0.2749
26.33667	0.2737
26.34000	0.2730
26.34333	0.2698
26.34667	0.2679
26.35000	0.2692
26.35333	0.2691
26.35667	0.2693
26.36000	0.2686
26.36333	0.2671
26.36667	0.2688
26.37000	0.2684
26.37333	0.2691
26.37667	0.2695
26.38000	0.2686
26.38333	0.2672
26.38667	0.2663
26.39000	0.2651
26.39333	0.2625
26.39667	0.2624
26.40000	0.2644
26.40333	0.2651
26.40667	0.2645
26.41000	0.2619
26.41333	0.2612
26.41667	0.2613
26.42000	0.2616
26.42333	0.2609
26.42667	0.2602
26.43000	0.2590
26.43333	0.2578
26.43667	0.2589
26.44000	0.2585
26.44333	0.2594
26.44667	0.2609
26.45000	0.2612
26.45333	0.2600
26.45667	0.2587
26.46000	0.2571
26.46333	0.2563
26.46667	0.2563
26.47000	0.2560
26.47333	0.2533
26.47667	0.2508
26.48000	0.2502
26.48333	0.2506
26.48667	0.2517
26.49000	0.2519
26.49333	0.2511
26.49667	0.2498
26.50000	0.2497
26.50333	0.2489
26.50667	0.2479
26.51000	0.2478
26.51333	0.2472
26.51667	0.2453
26.52000	0.2471
26.52333	0.2490
26.52667	0.2481
26.53000	0.2468
26.53333	0.2473
26.53667	0.2478
26.54000	0.2461
26.54333	0.2435
26.54667	0.2458
26.55000	0.2475
26.55333	0.2443
26.55667	0.2402
26.56000	0.2382
26.56333	0.2399
26.56667	0.2408
26.57000	0.2403
26.57333	0.2390
26.57667	0.2376
26.58000	0.2360
26.58333	0.2375
26.58667	0.2397
26.59000	0.2374
26.59333	0.2352
26.59667	0.2356
26.60000	0.2372
26.60333	0.2367
26.60667	0.2351
26.61000	0.2331
26.61333	0.2326
26.61667	0.2319
26.62000	0.2301
26.62333	0.2296
26.62667	0.2289
26.63000	0.2274
26.63333	0.2278
26.63667	0.2287
26.64000	0.2279
26.64333	0.2260
26.64667	0.2263
26.65000	0.2266
26.65333	0.2253
26.65667	0.2254
26.66000	0.2252
26.66333	0.2253
26.66667	0.2252
26.67000	0.2242
26.67333	0.2252
26.67667	0.2258
26.68000	0.2241
26.68333	0.2216
26.68667	0.2211
26.69000	0.2195
26.69333	0.2190
26.69667	0.2214
26.70000	0.2208
26.70333	0.2193
26.70667	0.2195
26.71000	0.2187
26.71333	0.2178
26.71667	0.2175
26.72000	0.2179
26.72333	0.2172
26.72667	0.2155
26.73000	0.2147
26.73333	0.2153
26.73667	0.2163
26.74000	0.2169
26.74333	0.2182
26.74667	0.2181
26.75000	0.2156
26.75333	0.2143
26.75667	0.2133
26.76000	0.2118
26.76333	0.2103
26.76667	0.2088
26.77000	0.2098
26.77333	0.2108
26.77667	0.2110
26.78000	0.2106
26.78333	0.2097
26.78667	0.2108
26.79000	0.2114
26.79333	0.2106
26.79667	0.2080
26.80000	0.2055
26.80333	0.2047
26.80667	0.2041
26.81000	0.2040
26.81333	0.2040
26.81667	0.2053
26.82000	0.2071
26.82333	0.2074
26.82667	0.2062
26.83000	0.2043
26.83333	0.2028
26.83667	0.2021
26.84000	0.2012
26.84333	0.2011
26.84667	0.2018
26.85000	0.2020
26.85333	0.2011
26.85667	0.2006
26.86000	0.2000
26.86333	0.1987
26.86667	0.1981
26.87000	0.1967
26.87333	0.1957
26.87667	0.1973
26.88000	0.1964
26.88333	0.1944
26.88667	0.1941
26.89000	0.1968
26.89333	0.1972
26.89667	0.1967
26.90000	0.1964
26.90333	0.1938
26.90667	0.1923
26.91000	0.1935
26.91333	0.1948
26.91667	0.1945
26.92000	0.1926
26.92333	0.1898
26.92667	0.1897
26.93000	0.1927
26.93333	0.1927
26.93667	0.1903
26.94000	0.1868
26.94333	0.1868
26.94667	0.1896
26.95000	0.1913
26.95333	0.1919
26.95667	0.1905
26.96000	0.1877
26.96333	0.1853
26.96667	0.1857
26.97000	0.1848
26.97333	0.1838
26.97667	0.1840
26.98000	0.1860
26.98333	0.1867
26.98667	0.1886
26.99000	0.1902
26.99333	0.1875
26.99667	0.1859
27.00000	0.1855
27.00333	0.1846
27.00667	0.1851
27.01000	0.1869
27.01333	0.1863
27.01667	0.1841
27.02000	0.1842
27.02333	0.1849
27.02667	0.1839
27.03000	0.1837
27.03333	0.1813
27.03667	0.1814
27.04000	0.1823
27.04333	0.1820
27.04667	0.1809
27.05000	0.1812
27.05333	0.1824
27.05667	0.1813
27.06000	0.1802
27.06333	0.1811
27.06667	0.1808
27.07000	0.1785
27.07333	0.1783
27.07667	0.1784
27.08000	0.1780
27.08333	0.1786
27.08667	0.1789
27.09000	0.1796
27.09333	0.1794
27.09667	0.1802
27.10000	0.1792
27.10333	0.1776
27.10667	0.1765
27.11000	0.1766
27.11333	0.1770
27.11667	0.1758
27.12000	0.1751
27.12333	0.1750
27.12667	0.1756
27.13000	0.1777
27.13333	0.1759
27.13667	0.1736
27.14000	0.1725
27.14333	0.1744
27.14667	0.1758
27.15000	0.1748
27.15333	0.1759
27.15667	0.1751
27.16000	0.1747
27.16333	0.1756
27.16667	0.1741
27.17000	0.1713
27.17333	0.1708
27.17667	0.1740
27.18000	0.1746
27.18333	0.1753
27.18667	0.1753
27.19000	0.1738
27.19333	0.1731
27.19667	0.1742
27.20000	0.1743
27.20333	0.1734
27.20667	0.1730
27.21000	0.1730
27.21333	0.1755
27.21667	0.1750
27.22000	0.1716
27.22333	0.1714
27.22667	0.1713
27.23000	0.1704
27.23333	0.1681
27.23667	0.1697
27.24000	0.1715
27.24333	0.1707
27.24667	0.1714
27.25000	0.1726
27.25333	0.1697
27.25667	0.1727
27.26000	0.1741
27.26333	0.1740
27.26667	0.1733
27.27000	0.1711
27.27333	0.1694
27.27667	0.1684
27.28000	0.1694
27.28333	0.1706
27.28667	0.1723
27.29000	0.1729
27.29333	0.1716
27.29667	0.1690
27.30000	0.1701
27.30333	0.1702
27.30667	0.1687
27.31000	0.1694
27.31333	0.1679
27.31667	0.1691
27.32000	0.1699
27.32333	0.1700
27.32667	0.1721
27.33000	0.1702
27.33333	0.1663
27.33667	0.1651
27.34000	0.1678
27.34333	0.1682
27.34667	0.1673
27.35000	0.1670
27.35333	0.1705
27.35667	0.1705
27.36000	0.1679
27.36333	0.1692
27.36667	0.1728
27.37000	0.1718
27.37333	0.1682
27.37667	0.1671
27.38000	0.1670
27.38333	0.1684
27.38667	0.1690
27.39000	0.1683
27.39333	0.1680
27.39667	0.1680
27.40000	0.1680
27.40333	0.1658
27.40667	0.1658
27.41000	0.1660
27.41333	0.1667
27.41667	0.1662
27.42000	0.1705
27.42333	0.1719
27.42667	0.1705
27.43000	0.1708
27.43333	0.1687
27.43667	0.1673
27.44000	0.1685
27.44333	0.1682
27.44667	0.1680
27.45000	0.1711
27.45333	0.1719
27.45667	0.1705
27.46000	0.1693
27.46333	0.1667
27.46667	0.1653
27.47000	0.1681
27.47333	0.1682
27.47667	0.1680
27.48000	0.1688
27.48333	0.1698
27.48667	0.1708
27.49000	0.1733
27.49333	0.1724
27.49667	0.1689
27.50000	0.1673
27.50333	0.1670
27.50667	0.1694
27.51000	0.1700
27.51333	0.1692
27.51667	0.1690
27.52000	0.1674
27.52333	0.1670
27.52667	0.1694
27.53000	0.1667
27.53333	0.1685
27.53667	0.1714
27.54000	0.1712
27.54333	0.1645
27.54667	0.1647
27.55000	0.1658
27.55333	0.1676
27.55667	0.1672
27.56000	0.1687
27.56333	0.1665
27.56667	0.1702
27.57000	0.1668
27.57333	0.1652
27.57667	0.1642
27.58000	0.1640
27.58333	0.1665
27.58667	0.1670
27.59000	0.1661
27.59333	0.1651
27.59667	0.1650
27.60000	0.1659
27.60333	0.1677
27.60667	0.1697
27.61000	0.1674
27.61333	0.1696
27.61667	0.1682
27.62000	0.1706
27.62333	0.1692
27.62667	0.1673
27.63000	0.1679
27.63333	0.1689
27.63667	0.1699
27.64000	0.1682
27.64333	0.1671
27.64667	0.1688
27.65000	0.1663
27.65333	0.1678
27.65667	0.1698
27.66000	0.1691
27.66333	0.1663
27.66667	0.1669
27.67000	0.1661
27.67333	0.1669
27.67667	0.1697
27.68000	0.1700
27.68333	0.1700
27.68667	0.1682
27.69000	0.1662
27.69333	0.1688
27.69667	0.1644
27.70000	0.1668
27.70333	0.1661
27.70667	0.1641
27.71000	0.1668
27.71333	0.1670
27.71667	0.1679
27.72000	0.1680
27.72333	0.1671
27.72667	0.1670
27.73000	0.1708
27.73333	0.1672
27.73667	0.1689
27.74000	0.1680
27.74333	0.1651
27.74667	0.1660
27.75000	0.1641
27.75333	0.1640
27.75667	0.1659
27.76000	0.1689
27.76333	0.1709
27.76667	0.1671
27.77000	0.1670
27.77333	0.1641
27.77667	0.1660
27.78000	0.1680
27.78333	0.1680
27.78667	0.1651
27.79000	0.1680
27.79333	0.1670
27.79667	0.1700
27.80000	0.1680
27.80333	0.1680
27.80667	0.1650
27.81000	0.1680
27.81333	0.1650
27.81667	0.1665
27.82000	0.1668
27.82333	0.1664
27.82667	0.1657
27.83000	0.1653
27.83333	0.1642
27.83667	0.1641
27.84000	0.1661
27.84333	0.1670
27.84667	0.1665
27.85000	0.1657
27.85333	0.1674
27.85667	0.1677
27.86000	0.1673
27.86333	0.1661
27.86667	0.1666
27.87000	0.1673
27.87333	0.1677
27.87667	0.1683
27.88000	0.1687
27.88333	0.1678
27.88667	0.1664
27.89000	0.1662
27.89333	0.1661
27.89667	0.1645
27.90000	0.1648
27.90333	0.1649
27.90667	0.1639
27.91000	0.1634
27.91333	0.1637
27.91667	0.1644
27.92000	0.1642
27.92333	0.1646
27.92667	0.1643
27.93000	0.1631
27.93333	0.1657
27.93667	0.1664
27.94000	0.1662
27.94333	0.1645
27.94667	0.1637
27.95000	0.1644
27.95333	0.1658
27.95667	0.1638
27.96000	0.1634
27.96333	0.1637
27.96667	0.1644
27.97000	0.1631
27.97333	0.1657
27.97667	0.1659
27.98000	0.1649
27.98333	0.1660
27.98667	0.1660
27.99000	0.1639
27.99333	0.1645
27.99667	0.1653
28.00000	0.1651
28.00333	0.1661
28.00667	0.1666
28.01000	0.1657
28.01333	0.1648
28.01667	0.1665
28.02000	0.1668
28.02333	0.1658
28.02667	0.1665
28.03000	0.1678
28.03333	0.1684
28.03667	0.1666
28.04000	0.1679
28.04333	0.1679
28.04667	0.1663
28.05000	0.1656
28.05333	0.1658
28.05667	0.1659
28.06000	0.1659
28.06333	0.1638
28.06667	0.1650
28.07000	0.1639
28.07333	0.1651
28.07667	0.1667
28.08000	0.1663
28.08333	0.1639
28.08667	0.1629
28.09000	0.1646
28.09333	0.1643
28.09667	0.1647
28.10000	0.1660
28.10333	0.1676
28.10667	0.1662
28.11000	0.1660
28.11333	0.1644
28.11667	0.1637
28.12000	0.1655
28.12333	0.1652
28.12667	0.1651
28.13000	0.1640
28.13333	0.1656
28.13667	0.1658
28.14000	0.1643
28.14333	0.1641
28.14667	0.1641
28.15000	0.1663
28.15333	0.1678
28.15667	0.1668
28.16000	0.1669
28.16333	0.1675
28.16667	0.1667
28.17000	0.1663
28.17333	0.1667
28.17667	0.1662
28.18000	0.1639
28.18333	0.1634
28.18667	0.1643
28.19000	0.1642
28.19333	0.1652
28.19667	0.1645
28.20000	0.1653
28.20333	0.1646
28.20667	0.1648
28.21000	0.1644
28.21333	0.1664
28.21667	0.1656
28.22000	0.1647
28.22333	0.1649
28.22667	0.1650
28.23000	0.1655
28.23333	0.1641
28.23667	0.1641
28.24000	0.1646
28.24333	0.1649
28.24667	0.1660
28.25000	0.1648
28.25333	0.1626
28.25667	0.1629
28.26000	0.1630
28.26333	0.1647
28.26667	0.1643
28.27000	0.1647
28.27333	0.1654
28.27667	0.1646
28.28000	0.1649
28.28333	0.1655
28.28667	0.1647
28.29000	0.1666
28.29333	0.1656
28.29667	0.1635
28.30000	0.1627
28.30333	0.1635
28.30667	0.1644
28.31000	0.1659
28.31333	0.1660
28.31667	0.1665
28.32000	0.1651
28.32333	0.1650
28.32667	0.1637
28.33000	0.1621
28.33333	0.1610
28.33667	0.1628
28.34000	0.1646
28.34333	0.1644
28.34667	0.1659
28.35000	0.1665
28.35333	0.1656
28.35667	0.1647
28.36000	0.1649
28.36333	0.1651
28.36667	0.1666
28.37000	0.1646
28.37333	0.1653
28.37667	0.1634
28.38000	0.1638
28.38333	0.1646
28.38667	0.1654
28.39000	0.1651
28.39333	0.1645
28.39667	0.1647
28.40000	0.1631
28.40333	0.1630
28.40667	0.1625
28.41000	0.1634
28.41333	0.1631
28.41667	0.1630
28.42000	0.1625
28.42333	0.1639
28.42667	0.1629
28.43000	0.1641
28.43333	0.1634
28.43667	0.1625
28.44000	0.1623
28.44333	0.1634
28.44667	0.1642
28.45000	0.1623
28.45333	0.1622
28.45667	0.1626
28.46000	0.1621
28.46333	0.1605
28.46667	0.1626
28.47000	0.1636
28.47333	0.1651
28.47667	0.1655
28.48000	0.1646
28.48333	0.1641
28.48667	0.1630
28.49000	0.1646
28.49333	0.1630
28.49667	0.1624
28.50000	0.1628
28.50333	0.1634
28.50667	0.1620
28.51000	0.1626
28.51333	0.1629
28.51667	0.1631
28.52000	0.1642
28.52333	0.1633
28.52667	0.1619
28.53000	0.1618
28.53333	0.1608
28.53667	0.1607
28.54000	0.1590
28.54333	0.1588
28.54667	0.1619
28.55000	0.1612
28.55333	0.1600
28.55667	0.1615
28.56000	0.1636
28.56333	0.1630
28.56667	0.1612
28.57000	0.1618
28.57333	0.1626
28.57667	0.1636
28.58000	0.1648
28.58333	0.1622
28.58667	0.1604
28.59000	0.1613
28.59333	0.1605
28.59667	0.1607
28.60000	0.1596
28.60333	0.1592
28.60667	0.1591
28.61000	0.1593
28.61333	0.1608
28.61667	0.1596
28.62000	0.1585
28.62333	0.1579
28.62667	0.1599
28.63000	0.1608
28.63333	0.1621
28.63667	0.1619
28.64000	0.1607
28.64333	0.1607
28.64667	0.1596
28.65000	0.1590
28.65333	0.1578
28.65667	0.1579
28.66000	0.1581
28.66333	0.1587
28.66667	0.1589
28.67000	0.1591
28.67333	0.1601
28.67667	0.1586
28.68000	0.1576
28.68333	0.1578
28.68667	0.1620
28.69000	0.1639
28.69333	0.1637
28.69667	0.1620
28.70000	0.1618
28.70333	0.1607
28.70667	0.1608
28.71000	0.1604
28.71333	0.1608
28.71667	0.1606
28.72000	0.1587
28.72333	0.1571
28.72667	0.1575
28.73000	0.1571
28.73333	0.1599
28.73667	0.1588
28.74000	0.1593
28.74333	0.1617
28.74667	0.1616
28.75000	0.1599
28.75333	0.1595
28.75667	0.1604
28.76000	0.1602
28.76333	0.1609
28.76667	0.1614
28.77000	0.1605
28.77333	0.1604
28.77667	0.1611
28.78000	0.1596
28.78333	0.1588
28.78667	0.1596
28.79000	0.1597
28.79333	0.1591
28.79667	0.1586
28.80000	0.1593
28.80333	0.1585
28.80667	0.1586
28.81000	0.1579
28.81333	0.1589
28.81667	0.1582
28.82000	0.1604
28.82333	0.1591
28.82667	0.1571
28.83000	0.1572
28.83333	0.1579
28.83667	0.1594
28.84000	0.1626
28.84333	0.1607
28.84667	0.1599
28.85000	0.1613
28.85333	0.1618
28.85667	0.1614
28.86000	0.1585
28.86333	0.1557
28.86667	0.1562
28.87000	0.1573
28.87333	0.1568
28.87667	0.1560
28.88000	0.1577
28.88333	0.1591
28.88667	0.1593
28.89000	0.1599
28.89333	0.1583
28.89667	0.1595
28.90000	0.1600
28.90333	0.1605
28.90667	0.1599
28.91000	0.1584
28.91333	0.1576
28.91667	0.1582
28.92000	0.1596
28.92333	0.1601
28.92667	0.1583
28.93000	0.1570
28.93333	0.1572
28.93667	0.1557
28.94000	0.1555
28.94333	0.1566
28.94667	0.1570
28.95000	0.1577
28.95333	0.1582
28.95667	0.1590
28.96000	0.1578
28.96333	0.1581
28.96667	0.1584
28.97000	0.1574
28.97333	0.1570
28.97667	0.1563
28.98000	0.1564
28.98333	0.1575
28.98667	0.1575
28.99000	0.1563
28.99333	0.1559
28.99667	0.1567
29.00000	0.1555
29.00333	0.1571
29.00667	0.1574
29.01000	0.1584
29.01333	0.1579
29.01667	0.1571
29.02000	0.1561
29.02333	0.1557
29.02667	0.1566
29.03000	0.1565
29.03333	0.1558
29.03667	0.1567
29.04000	0.1567
29.04333	0.1569
29.04667	0.1589
29.05000	0.1586
29.05333	0.1575
29.05667	0.1566
29.06000	0.1549
29.06333	0.1552
29.06667	0.1560
29.07000	0.1567
29.07333	0.1577
29.07667	0.1595
29.08000	0.1584
29.08333	0.1577
29.08667	0.1561
29.09000	0.1552
29.09333	0.1569
29.09667	0.1580
29.10000	0.1575
29.10333	0.1583
29.10667	0.1593
29.11000	0.1583
29.11333	0.1557
29.11667	0.1553
29.12000	0.1571
29.12333	0.1577
29.12667	0.1592
29.13000	0.1586
29.13333	0.1574
29.13667	0.1571
29.14000	0.1564
29.14333	0.1546
29.14667	0.1542
29.15000	0.1540
29.15333	0.1545
29.15667	0.1554
29.16000	0.1558
29.16333	0.1574
29.16667	0.1572
29.17000	0.1549
29.17333	0.1537
29.17667	0.1559
29.18000	0.1577
29.18333	0.1584
29.18667	0.1579
29.19000	0.1572
29.19333	0.1571
29.19667	0.1558
29.20000	0.1542
29.20333	0.1558
29.20667	0.1554
29.21000	0.1561
29.21333	0.1560
29.21667	0.1543
29.22000	0.1536
29.22333	0.1544
29.22667	0.1549
29.23000	0.1532
29.23333	0.1526
29.23667	0.1536
29.24000	0.1549
29.24333	0.1530
29.24667	0.1507
29.25000	0.1514
29.25333	0.1519
29.25667	0.1530
29.26000	0.1528
29.26333	0.1532
29.26667	0.1520
29.27000	0.1510
29.27333	0.1510
29.27667	0.1528
29.28000	0.1540
29.28333	0.1534
29.28667	0.1511
29.29000	0.1516
29.29333	0.1524
29.29667	0.1529
29.30000	0.1548
29.30333	0.1552
29.30667	0.1540
29.31000	0.1532
29.31333	0.1533
29.31667	0.1549
29.32000	0.1567
29.32333	0.1553
29.32667	0.1530
29.33000	0.1523
29.33333	0.1539
29.33667	0.1550
29.34000	0.1558
29.34333	0.1554
29.34667	0.1549
29.35000	0.1563
29.35333	0.1567
29.35667	0.1548
29.36000	0.1552
29.36333	0.1578
29.36667	0.1568
29.37000	0.1537
29.37333	0.1519
29.37667	0.1523
29.38000	0.1534
29.38333	0.1546
29.38667	0.1549
29.39000	0.1547
29.39333	0.1545
29.39667	0.1540
29.40000	0.1515
29.40333	0.1505
29.40667	0.1523
29.41000	0.1521
29.41333	0.1506
29.41667	0.1526
29.42000	0.1542
29.42333	0.1544
29.42667	0.1549
29.43000	0.1540
29.43333	0.1521
29.43667	0.1509
29.44000	0.1505
29.44333	0.1519
29.44667	0.1532
29.45000	0.1521
29.45333	0.1508
29.45667	0.1516
29.46000	0.1524
29.46333	0.1521
29.46667	0.1517
29.47000	0.1515
29.47333	0.1516
29.47667	0.1518
29.48000	0.1538
29.48333	0.1542
29.48667	0.1525
29.49000	0.1524
29.49333	0.1522
29.49667	0.1512
29.50000	0.1510
29.50333	0.1514
29.50667	0.1515
29.51000	0.1504
29.51333	0.1489
29.51667	0.1493
29.52000	0.1507
29.52333	0.1509
29.52667	0.1506
29.53000	0.1498
29.53333	0.1488
29.53667	0.1478
29.54000	0.1486
29.54333	0.1509
29.54667	0.1503
29.55000	0.1488
29.55333	0.1501
29.55667	0.1520
29.56000	0.1524
29.56333	0.1528
29.56667	0.1519
29.57000	0.1507
29.57333	0.1521
29.57667	0.1524
29.58000	0.1525
29.58333	0.1521
29.58667	0.1508
29.59000	0.1502
29.59333	0.1512
29.59667	0.1523
29.60000	0.1528
29.60333	0.1526
29.60667	0.1521
29.61000	0.1524
29.61333	0.1525
29.61667	0.1521
29.62000	0.1516
29.62333	0.1531
29.62667	0.1535
29.63000	0.1510
29.63333	0.1506
29.63667	0.1513
29.64000	0.1511
29.64333	0.1506
29.64667	0.1509
29.65000	0.1531
29.65333	0.1542
29.65667	0.1540
29.66000	0.1540
29.66333	0.1532
29.66667	0.1530
29.67000	0.1538
29.67333	0.1531
29.67667	0.1518
29.68000	0.1516
29.68333	0.1524
29.68667	0.1533
29.69000	0.1522
29.69333	0.1517
29.69667	0.1515
29.70000	0.1502
29.70333	0.1500
29.70667	0.1496
29.71000	0.1491
29.71333	0.1486
29.71667	0.1494
29.72000	0.1503
29.72333	0.1509
29.72667	0.1518
29.73000	0.1515
29.73333	0.1511
29.73667	0.1492
29.74000	0.1492
29.74333	0.1502
29.74667	0.1500
29.75000	0.1500
29.75333	0.1491
29.75667	0.1491
29.76000	0.1503
29.76333	0.1509
29.76667	0.1500
29.77000	0.1506
29.77333	0.1504
29.77667	0.1497
29.78000	0.1504
29.78333	0.1514
29.78667	0.1524
29.79000	0.1510
29.79333	0.1483
29.79667	0.1491
29.80000	0.1512
29.80333	0.1509
29.80667	0.1496
29.81000	0.1486
29.81333	0.1476
29.81667	0.1496
29.82000	0.1487
29.82333	0.1499
29.82667	0.1520
29.83000	0.1520
29.83333	0.1500
29.83667	0.1493
29.84000	0.1499
29.84333	0.1505
29.84667	0.1519
29.85000	0.1534
29.85333	0.1519
29.85667	0.1518
29.86000	0.1533
29.86333	0.1529
29.86667	0.1521
29.87000	0.1505
29.87333	0.1487
29.87667	0.1486
29.88000	0.1500
29.88333	0.1498
29.88667	0.1491
29.89000	0.1495
29.89333	0.1499
29.89667	0.1505
29.90000	0.1504
29.90333	0.1501
29.90667	0.1505
29.91000	0.1499
29.91333	0.1491
29.91667	0.1496
29.92000	0.1516
29.92333	0.1523
29.92667	0.1520
29.93000	0.1531
29.93333	0.1539
29.93667	0.1529
29.94000	0.1516
29.94333	0.1516
29.94667	0.1514
29.95000	0.1499
29.95333	0.1486
29.95667	0.1475
29.96000	0.1488
29.96333	0.1493
29.96667	0.1479
29.97000	0.1471

